#
# Results on Tue, 04 Jun 2024 13:53:55 GMT
# USER AGENT: Mozilla/5.0 (iPhone; CPU iPhone OS 17_4_1 like Mac OS X) AppleWebKit/605.1.15 (KHTML, like Gecko) Version/17.4.1 Mobile/15E148 Safari/604.1
# Design number was non-random = 0
#
# Columns below this comment are as follows:
# 1. Results reception time.
# 2. MD5 hash of participant's IP address.
# 3. Controller name.
# 4. Order number of item.
# 5. Inner element number.
# 6. Label.
# 7. Latin Square Group.
# 8. PennElementType.
# 9. PennElementName.
# 10. Parameter.
# 11. Value.
# 12. EventTime.
# 13. freq_for_2.
# 14. freq_for_1.
# 15. freq_russ_2.
# 16. freq_russ_1.
# 17. lang2.
# 18. lang1.
# 19. edu.
# 20. country1.
# 21. age.
# 22. state.
# 23. id.
# 24. Comments.
1717509235,97c6387f0e7bb2e525920ca89da0e708,PennController,1,0,permission,NULL,PennController,0,_Header_,Start,1717508830747,undefined,undefined,undefined,undefined,undefined,undefined,undefined,undefined,undefined,undefined,undefined,NULL
1717509235,97c6387f0e7bb2e525920ca89da0e708,PennController,1,0,permission,NULL,PennController,0,_Trial_,Start,1717508830747,undefined,undefined,undefined,undefined,undefined,undefined,undefined,undefined,undefined,undefined,undefined,NULL
1717509235,97c6387f0e7bb2e525920ca89da0e708,PennController,1,0,permission,NULL,PennController,0,_Header_,End,1717508830749,undefined,undefined,undefined,undefined,undefined,undefined,undefined,undefined,undefined,undefined,undefined,NULL
1717509235,97c6387f0e7bb2e525920ca89da0e708,PennController,1,0,permission,NULL,PennController,0,_Trial_,End,1717508846653,undefined,undefined,undefined,undefined,undefined,undefined,undefined,undefined,undefined,undefined,undefined,NULL
1717509235,97c6387f0e7bb2e525920ca89da0e708,PennController,2,0,survey,NULL,PennController,1,_Header_,Start,1717508846664,undefined,undefined,undefined,undefined,undefined,undefined,undefined,undefined,undefined,undefined,undefined,NULL
1717509235,97c6387f0e7bb2e525920ca89da0e708,PennController,2,0,survey,NULL,PennController,1,_Trial_,Start,1717508846664,undefined,undefined,undefined,undefined,undefined,undefined,undefined,undefined,undefined,undefined,undefined,NULL
1717509235,97c6387f0e7bb2e525920ca89da0e708,PennController,2,0,survey,NULL,PennController,1,_Header_,End,1717508846665,undefined,undefined,undefined,undefined,undefined,undefined,undefined,undefined,undefined,undefined,undefined,NULL
1717509235,97c6387f0e7bb2e525920ca89da0e708,PennController,2,0,survey,NULL,Html,survey_form,age,21,1717509025134,undefined,undefined,undefined,undefined,undefined,undefined,undefined,undefined,undefined,undefined,undefined,text input
1717509235,97c6387f0e7bb2e525920ca89da0e708,PennController,2,0,survey,NULL,Html,survey_form,3_use_per,Английский,1717509025135,undefined,undefined,undefined,undefined,undefined,undefined,undefined,undefined,undefined,undefined,undefined,text input
1717509235,97c6387f0e7bb2e525920ca89da0e708,PennController,2,0,survey,NULL,Html,survey_form,2_use_percentage,0%,1717509025135,undefined,undefined,undefined,undefined,undefined,undefined,undefined,undefined,undefined,undefined,undefined,text input
1717509235,97c6387f0e7bb2e525920ca89da0e708,PennController,2,0,survey,NULL,Html,survey_form,2_use_per,Немецкий,1717509025135,undefined,undefined,undefined,undefined,undefined,undefined,undefined,undefined,undefined,undefined,undefined,text input
1717509235,97c6387f0e7bb2e525920ca89da0e708,PennController,2,0,survey,NULL,Html,survey_form,nat_use_percentage,95%,1717509025135,undefined,undefined,undefined,undefined,undefined,undefined,undefined,undefined,undefined,undefined,undefined,text input
1717509235,97c6387f0e7bb2e525920ca89da0e708,PennController,2,0,survey,NULL,Html,survey_form,nat_use_per,Русский,1717509025135,undefined,undefined,undefined,undefined,undefined,undefined,undefined,undefined,undefined,undefined,undefined,text input
1717509235,97c6387f0e7bb2e525920ca89da0e708,PennController,2,0,survey,NULL,Html,survey_form,acq5,,1717509025135,undefined,undefined,undefined,undefined,undefined,undefined,undefined,undefined,undefined,undefined,undefined,text input
1717509235,97c6387f0e7bb2e525920ca89da0e708,PennController,2,0,survey,NULL,Html,survey_form,acq4,Норвежский,1717509025135,undefined,undefined,undefined,undefined,undefined,undefined,undefined,undefined,undefined,undefined,undefined,text input
1717509235,97c6387f0e7bb2e525920ca89da0e708,PennController,2,0,survey,NULL,Html,survey_form,acq3,Немецкий,1717509025135,undefined,undefined,undefined,undefined,undefined,undefined,undefined,undefined,undefined,undefined,undefined,text input
1717509235,97c6387f0e7bb2e525920ca89da0e708,PennController,2,0,survey,NULL,Html,survey_form,acq2,Английский,1717509025135,undefined,undefined,undefined,undefined,undefined,undefined,undefined,undefined,undefined,undefined,undefined,text input
1717509235,97c6387f0e7bb2e525920ca89da0e708,PennController,2,0,survey,NULL,Html,survey_form,acq1,Русский,1717509025135,undefined,undefined,undefined,undefined,undefined,undefined,undefined,undefined,undefined,undefined,undefined,text input
1717509235,97c6387f0e7bb2e525920ca89da0e708,PennController,2,0,survey,NULL,Html,survey_form,domin5,,1717509025135,undefined,undefined,undefined,undefined,undefined,undefined,undefined,undefined,undefined,undefined,undefined,text input
1717509235,97c6387f0e7bb2e525920ca89da0e708,PennController,2,0,survey,NULL,Html,survey_form,domin4,,1717509025135,undefined,undefined,undefined,undefined,undefined,undefined,undefined,undefined,undefined,undefined,undefined,text input
1717509235,97c6387f0e7bb2e525920ca89da0e708,PennController,2,0,survey,NULL,Html,survey_form,domin3,Немецкий,1717509025135,undefined,undefined,undefined,undefined,undefined,undefined,undefined,undefined,undefined,undefined,undefined,text input
1717509235,97c6387f0e7bb2e525920ca89da0e708,PennController,2,0,survey,NULL,Html,survey_form,domin2,Норвежский ,1717509025135,undefined,undefined,undefined,undefined,undefined,undefined,undefined,undefined,undefined,undefined,undefined,text input
1717509235,97c6387f0e7bb2e525920ca89da0e708,PennController,2,0,survey,NULL,Html,survey_form,domin1,Английский ,1717509025135,undefined,undefined,undefined,undefined,undefined,undefined,undefined,undefined,undefined,undefined,undefined,text input
1717509235,97c6387f0e7bb2e525920ca89da0e708,PennController,2,0,survey,NULL,Html,survey_form,englishlevel_toefl,B2,1717509025135,undefined,undefined,undefined,undefined,undefined,undefined,undefined,undefined,undefined,undefined,undefined,text input
1717509235,97c6387f0e7bb2e525920ca89da0e708,PennController,2,0,survey,NULL,Html,survey_form,englishlevel_ielts,-,1717509025135,undefined,undefined,undefined,undefined,undefined,undefined,undefined,undefined,undefined,undefined,undefined,text input
1717509235,97c6387f0e7bb2e525920ca89da0e708,PennController,2,0,survey,NULL,Html,survey_form,englishlevel_hse,6,1717509025135,undefined,undefined,undefined,undefined,undefined,undefined,undefined,undefined,undefined,undefined,undefined,text input
1717509235,97c6387f0e7bb2e525920ca89da0e708,PennController,2,0,survey,NULL,Html,survey_form,years_of_education,14,1717509025135,undefined,undefined,undefined,undefined,undefined,undefined,undefined,undefined,undefined,undefined,undefined,text input
1717509235,97c6387f0e7bb2e525920ca89da0e708,PennController,2,0,survey,NULL,Html,survey_form,friends_en,0,1717509025137,undefined,undefined,undefined,undefined,undefined,undefined,undefined,undefined,undefined,undefined,undefined,radio button
1717509235,97c6387f0e7bb2e525920ca89da0e708,PennController,2,0,survey,NULL,Html,survey_form,family_en,0,1717509025137,undefined,undefined,undefined,undefined,undefined,undefined,undefined,undefined,undefined,undefined,undefined,radio button
1717509235,97c6387f0e7bb2e525920ca89da0e708,PennController,2,0,survey,NULL,Html,survey_form,listening_en,4,1717509025137,undefined,undefined,undefined,undefined,undefined,undefined,undefined,undefined,undefined,undefined,undefined,radio button
1717509235,97c6387f0e7bb2e525920ca89da0e708,PennController,2,0,survey,NULL,Html,survey_form,writing2_en,1,1717509025137,undefined,undefined,undefined,undefined,undefined,undefined,undefined,undefined,undefined,undefined,undefined,radio button
1717509235,97c6387f0e7bb2e525920ca89da0e708,PennController,2,0,survey,NULL,Html,survey_form,writing_en,1,1717509025137,undefined,undefined,undefined,undefined,undefined,undefined,undefined,undefined,undefined,undefined,undefined,radio button
1717509235,97c6387f0e7bb2e525920ca89da0e708,PennController,2,0,survey,NULL,Html,survey_form,watching_en,4,1717509025137,undefined,undefined,undefined,undefined,undefined,undefined,undefined,undefined,undefined,undefined,undefined,radio button
1717509235,97c6387f0e7bb2e525920ca89da0e708,PennController,2,0,survey,NULL,Html,survey_form,reading_en,4,1717509025137,undefined,undefined,undefined,undefined,undefined,undefined,undefined,undefined,undefined,undefined,undefined,radio button
1717509235,97c6387f0e7bb2e525920ca89da0e708,PennController,2,0,survey,NULL,Html,survey_form,readen,9,1717509025137,undefined,undefined,undefined,undefined,undefined,undefined,undefined,undefined,undefined,undefined,undefined,radio button
1717509235,97c6387f0e7bb2e525920ca89da0e708,PennController,2,0,survey,NULL,Html,survey_form,speaken,5,1717509025137,undefined,undefined,undefined,undefined,undefined,undefined,undefined,undefined,undefined,undefined,undefined,radio button
1717509235,97c6387f0e7bb2e525920ca89da0e708,PennController,2,0,survey,NULL,Html,survey_form,understanden,3,1717509025137,undefined,undefined,undefined,undefined,undefined,undefined,undefined,undefined,undefined,undefined,undefined,radio button
1717509235,97c6387f0e7bb2e525920ca89da0e708,PennController,2,0,survey,NULL,Html,survey_form,education,Some College,1717509025137,undefined,undefined,undefined,undefined,undefined,undefined,undefined,undefined,undefined,undefined,undefined,radio button
1717509235,97c6387f0e7bb2e525920ca89da0e708,PennController,2,0,survey,NULL,Html,survey_form,sex,female,1717509025137,undefined,undefined,undefined,undefined,undefined,undefined,undefined,undefined,undefined,undefined,undefined,radio button
1717509235,97c6387f0e7bb2e525920ca89da0e708,PennController,2,0,survey,NULL,Html,survey_form,5_use_percentage,,1717509025137,undefined,undefined,undefined,undefined,undefined,undefined,undefined,undefined,undefined,undefined,undefined,text input
1717509235,97c6387f0e7bb2e525920ca89da0e708,PennController,2,0,survey,NULL,Html,survey_form,5_use_per,,1717509025137,undefined,undefined,undefined,undefined,undefined,undefined,undefined,undefined,undefined,undefined,undefined,text input
1717509235,97c6387f0e7bb2e525920ca89da0e708,PennController,2,0,survey,NULL,Html,survey_form,4_use_percentage,0%2C5%,1717509025137,undefined,undefined,undefined,undefined,undefined,undefined,undefined,undefined,undefined,undefined,undefined,text input
1717509235,97c6387f0e7bb2e525920ca89da0e708,PennController,2,0,survey,NULL,Html,survey_form,4_use_per,Норвежский,1717509025137,undefined,undefined,undefined,undefined,undefined,undefined,undefined,undefined,undefined,undefined,undefined,text input
1717509235,97c6387f0e7bb2e525920ca89da0e708,PennController,2,0,survey,NULL,Html,survey_form,3_use_percentage,4%2C5%,1717509025137,undefined,undefined,undefined,undefined,undefined,undefined,undefined,undefined,undefined,undefined,undefined,text input
1717509235,97c6387f0e7bb2e525920ca89da0e708,PennController,2,0,survey,NULL,PennController,1,_Trial_,End,1717509025138,undefined,undefined,undefined,undefined,undefined,undefined,undefined,undefined,undefined,undefined,undefined,NULL
1717509235,97c6387f0e7bb2e525920ca89da0e708,PennController,3,0,ID_resp,NULL,PennController,2,_Header_,Start,1717509025154,undefined,undefined,undefined,undefined,undefined,undefined,undefined,undefined,undefined,undefined,28,NULL
1717509235,97c6387f0e7bb2e525920ca89da0e708,PennController,3,0,ID_resp,NULL,PennController,2,_Trial_,Start,1717509025154,undefined,undefined,undefined,undefined,undefined,undefined,undefined,undefined,undefined,undefined,28,NULL
1717509235,97c6387f0e7bb2e525920ca89da0e708,PennController,3,0,ID_resp,NULL,PennController,2,_Header_,End,1717509025156,undefined,undefined,undefined,undefined,undefined,undefined,undefined,undefined,undefined,undefined,28,NULL
1717509235,97c6387f0e7bb2e525920ca89da0e708,PennController,3,0,ID_resp,NULL,PennController,2,_Trial_,End,1717509032858,undefined,undefined,undefined,undefined,undefined,undefined,undefined,undefined,undefined,undefined,28,NULL
1717509235,97c6387f0e7bb2e525920ca89da0e708,PennController,6,0,test,NULL,PennController,5,_Header_,Start,1717509032863,undefined,undefined,undefined,undefined,undefined,undefined,undefined,undefined,undefined,undefined,28,NULL
1717509235,97c6387f0e7bb2e525920ca89da0e708,PennController,6,0,test,NULL,PennController,5,_Trial_,Start,1717509032863,undefined,undefined,undefined,undefined,undefined,undefined,undefined,undefined,undefined,undefined,28,NULL
1717509235,97c6387f0e7bb2e525920ca89da0e708,PennController,6,0,test,NULL,PennController,5,_Header_,End,1717509032867,undefined,undefined,undefined,undefined,undefined,undefined,undefined,undefined,undefined,undefined,28,NULL
1717509235,97c6387f0e7bb2e525920ca89da0e708,PennController,6,0,test,NULL,PennController,5,_Trial_,End,1717509045462,undefined,undefined,undefined,undefined,undefined,undefined,undefined,undefined,undefined,undefined,28,NULL
# 24. Word.
# 25. Color.
# 26. Correct.
# 27. Comments.
1717509235,97c6387f0e7bb2e525920ca89da0e708,PennController,7,0,test,NULL,PennController,8,_Header_,Start,1717509045466,undefined,undefined,undefined,undefined,undefined,undefined,undefined,undefined,undefined,undefined,28,brown,darkred,false,NULL
1717509235,97c6387f0e7bb2e525920ca89da0e708,PennController,7,0,test,NULL,PennController,8,_Trial_,Start,1717509045466,undefined,undefined,undefined,undefined,undefined,undefined,undefined,undefined,undefined,undefined,28,brown,darkred,false,NULL
1717509235,97c6387f0e7bb2e525920ca89da0e708,PennController,7,0,test,NULL,PennController,8,_Header_,End,1717509045467,undefined,undefined,undefined,undefined,undefined,undefined,undefined,undefined,undefined,undefined,28,brown,darkred,false,NULL
1717509235,97c6387f0e7bb2e525920ca89da0e708,PennController,7,0,test,NULL,Timer,allotted time,Start,Start,1717509045986,undefined,undefined,undefined,undefined,undefined,undefined,undefined,undefined,undefined,undefined,28,brown,darkred,false,NULL
1717509235,97c6387f0e7bb2e525920ca89da0e708,PennController,7,0,test,NULL,Timer,allotted time,End,End,1717509052000,undefined,undefined,undefined,undefined,undefined,undefined,undefined,undefined,undefined,undefined,28,brown,darkred,false,NULL
1717509235,97c6387f0e7bb2e525920ca89da0e708,PennController,7,0,test,NULL,PennController,8,_Trial_,End,1717509053017,undefined,undefined,undefined,undefined,undefined,undefined,undefined,undefined,undefined,undefined,28,brown,darkred,false,NULL
1717509235,97c6387f0e7bb2e525920ca89da0e708,PennController,8,0,test,NULL,PennController,9,_Header_,Start,1717509053029,undefined,undefined,undefined,undefined,undefined,undefined,undefined,undefined,undefined,undefined,28,brown,brown,false,NULL
1717509235,97c6387f0e7bb2e525920ca89da0e708,PennController,8,0,test,NULL,PennController,9,_Trial_,Start,1717509053029,undefined,undefined,undefined,undefined,undefined,undefined,undefined,undefined,undefined,undefined,28,brown,brown,false,NULL
1717509235,97c6387f0e7bb2e525920ca89da0e708,PennController,8,0,test,NULL,PennController,9,_Header_,End,1717509053030,undefined,undefined,undefined,undefined,undefined,undefined,undefined,undefined,undefined,undefined,28,brown,brown,false,NULL
1717509235,97c6387f0e7bb2e525920ca89da0e708,PennController,8,0,test,NULL,Timer,allotted time,Start,Start,1717509053539,undefined,undefined,undefined,undefined,undefined,undefined,undefined,undefined,undefined,undefined,28,brown,brown,false,NULL
1717509235,97c6387f0e7bb2e525920ca89da0e708,PennController,8,0,test,NULL,Timer,allotted time,End,End,1717509056317,undefined,undefined,undefined,undefined,undefined,undefined,undefined,undefined,undefined,undefined,28,brown,brown,false,NULL
1717509235,97c6387f0e7bb2e525920ca89da0e708,PennController,8,0,test,NULL,PennController,9,_Trial_,End,1717509057328,undefined,undefined,undefined,undefined,undefined,undefined,undefined,undefined,undefined,undefined,28,brown,brown,false,NULL
1717509235,97c6387f0e7bb2e525920ca89da0e708,PennController,9,0,test,NULL,PennController,10,_Header_,Start,1717509057338,undefined,undefined,undefined,undefined,undefined,undefined,undefined,undefined,undefined,undefined,28,жёлтый,red,true,NULL
1717509235,97c6387f0e7bb2e525920ca89da0e708,PennController,9,0,test,NULL,PennController,10,_Trial_,Start,1717509057338,undefined,undefined,undefined,undefined,undefined,undefined,undefined,undefined,undefined,undefined,28,жёлтый,red,true,NULL
1717509235,97c6387f0e7bb2e525920ca89da0e708,PennController,9,0,test,NULL,PennController,10,_Header_,End,1717509057340,undefined,undefined,undefined,undefined,undefined,undefined,undefined,undefined,undefined,undefined,28,жёлтый,red,true,NULL
1717509235,97c6387f0e7bb2e525920ca89da0e708,PennController,9,0,test,NULL,Timer,allotted time,Start,Start,1717509057845,undefined,undefined,undefined,undefined,undefined,undefined,undefined,undefined,undefined,undefined,28,жёлтый,red,true,NULL
1717509235,97c6387f0e7bb2e525920ca89da0e708,PennController,9,0,test,NULL,Timer,allotted time,End,End,1717509059468,undefined,undefined,undefined,undefined,undefined,undefined,undefined,undefined,undefined,undefined,28,жёлтый,red,true,NULL
1717509235,97c6387f0e7bb2e525920ca89da0e708,PennController,9,0,test,NULL,PennController,10,_Trial_,End,1717509060480,undefined,undefined,undefined,undefined,undefined,undefined,undefined,undefined,undefined,undefined,28,жёлтый,red,true,NULL
1717509235,97c6387f0e7bb2e525920ca89da0e708,PennController,10,0,test,NULL,PennController,11,_Header_,Start,1717509060486,undefined,undefined,undefined,undefined,undefined,undefined,undefined,undefined,undefined,undefined,28,khaki,navy,false,NULL
1717509235,97c6387f0e7bb2e525920ca89da0e708,PennController,10,0,test,NULL,PennController,11,_Trial_,Start,1717509060486,undefined,undefined,undefined,undefined,undefined,undefined,undefined,undefined,undefined,undefined,28,khaki,navy,false,NULL
1717509235,97c6387f0e7bb2e525920ca89da0e708,PennController,10,0,test,NULL,PennController,11,_Header_,End,1717509060488,undefined,undefined,undefined,undefined,undefined,undefined,undefined,undefined,undefined,undefined,28,khaki,navy,false,NULL
1717509235,97c6387f0e7bb2e525920ca89da0e708,PennController,10,0,test,NULL,Timer,allotted time,Start,Start,1717509060994,undefined,undefined,undefined,undefined,undefined,undefined,undefined,undefined,undefined,undefined,28,khaki,navy,false,NULL
1717509235,97c6387f0e7bb2e525920ca89da0e708,PennController,10,0,test,NULL,Timer,allotted time,End,End,1717509064385,undefined,undefined,undefined,undefined,undefined,undefined,undefined,undefined,undefined,undefined,28,khaki,navy,false,NULL
1717509235,97c6387f0e7bb2e525920ca89da0e708,PennController,10,0,test,NULL,PennController,11,_Trial_,End,1717509065396,undefined,undefined,undefined,undefined,undefined,undefined,undefined,undefined,undefined,undefined,28,khaki,navy,false,NULL
1717509235,97c6387f0e7bb2e525920ca89da0e708,PennController,11,0,test,NULL,PennController,12,_Header_,Start,1717509065403,undefined,undefined,undefined,undefined,undefined,undefined,undefined,undefined,undefined,undefined,28,красный,blue,true,NULL
1717509235,97c6387f0e7bb2e525920ca89da0e708,PennController,11,0,test,NULL,PennController,12,_Trial_,Start,1717509065403,undefined,undefined,undefined,undefined,undefined,undefined,undefined,undefined,undefined,undefined,28,красный,blue,true,NULL
1717509235,97c6387f0e7bb2e525920ca89da0e708,PennController,11,0,test,NULL,PennController,12,_Header_,End,1717509065405,undefined,undefined,undefined,undefined,undefined,undefined,undefined,undefined,undefined,undefined,28,красный,blue,true,NULL
1717509235,97c6387f0e7bb2e525920ca89da0e708,PennController,11,0,test,NULL,Timer,allotted time,Start,Start,1717509065913,undefined,undefined,undefined,undefined,undefined,undefined,undefined,undefined,undefined,undefined,28,красный,blue,true,NULL
1717509235,97c6387f0e7bb2e525920ca89da0e708,PennController,11,0,test,NULL,Timer,allotted time,End,End,1717509067634,undefined,undefined,undefined,undefined,undefined,undefined,undefined,undefined,undefined,undefined,28,красный,blue,true,NULL
1717509235,97c6387f0e7bb2e525920ca89da0e708,PennController,11,0,test,NULL,PennController,12,_Trial_,End,1717509068645,undefined,undefined,undefined,undefined,undefined,undefined,undefined,undefined,undefined,undefined,28,красный,blue,true,NULL
1717509235,97c6387f0e7bb2e525920ca89da0e708,PennController,12,0,test,NULL,PennController,13,_Header_,Start,1717509068652,undefined,undefined,undefined,undefined,undefined,undefined,undefined,undefined,undefined,undefined,28,фиолетовый,purple,true,NULL
1717509235,97c6387f0e7bb2e525920ca89da0e708,PennController,12,0,test,NULL,PennController,13,_Trial_,Start,1717509068652,undefined,undefined,undefined,undefined,undefined,undefined,undefined,undefined,undefined,undefined,28,фиолетовый,purple,true,NULL
1717509235,97c6387f0e7bb2e525920ca89da0e708,PennController,12,0,test,NULL,PennController,13,_Header_,End,1717509068654,undefined,undefined,undefined,undefined,undefined,undefined,undefined,undefined,undefined,undefined,28,фиолетовый,purple,true,NULL
1717509235,97c6387f0e7bb2e525920ca89da0e708,PennController,12,0,test,NULL,Timer,allotted time,Start,Start,1717509069160,undefined,undefined,undefined,undefined,undefined,undefined,undefined,undefined,undefined,undefined,28,фиолетовый,purple,true,NULL
1717509235,97c6387f0e7bb2e525920ca89da0e708,PennController,12,0,test,NULL,Timer,allotted time,End,End,1717509071712,undefined,undefined,undefined,undefined,undefined,undefined,undefined,undefined,undefined,undefined,28,фиолетовый,purple,true,NULL
1717509235,97c6387f0e7bb2e525920ca89da0e708,PennController,12,0,test,NULL,PennController,13,_Trial_,End,1717509072720,undefined,undefined,undefined,undefined,undefined,undefined,undefined,undefined,undefined,undefined,28,фиолетовый,purple,true,NULL
1717509235,97c6387f0e7bb2e525920ca89da0e708,PennController,13,0,test,NULL,PennController,14,_Header_,Start,1717509072725,undefined,undefined,undefined,undefined,undefined,undefined,undefined,undefined,undefined,undefined,28,green,gray,true,NULL
1717509235,97c6387f0e7bb2e525920ca89da0e708,PennController,13,0,test,NULL,PennController,14,_Trial_,Start,1717509072725,undefined,undefined,undefined,undefined,undefined,undefined,undefined,undefined,undefined,undefined,28,green,gray,true,NULL
1717509235,97c6387f0e7bb2e525920ca89da0e708,PennController,13,0,test,NULL,PennController,14,_Header_,End,1717509072726,undefined,undefined,undefined,undefined,undefined,undefined,undefined,undefined,undefined,undefined,28,green,gray,true,NULL
1717509235,97c6387f0e7bb2e525920ca89da0e708,PennController,13,0,test,NULL,Timer,allotted time,Start,Start,1717509073234,undefined,undefined,undefined,undefined,undefined,undefined,undefined,undefined,undefined,undefined,28,green,gray,true,NULL
1717509235,97c6387f0e7bb2e525920ca89da0e708,PennController,13,0,test,NULL,Timer,allotted time,End,End,1717509075858,undefined,undefined,undefined,undefined,undefined,undefined,undefined,undefined,undefined,undefined,28,green,gray,true,NULL
1717509235,97c6387f0e7bb2e525920ca89da0e708,PennController,13,0,test,NULL,PennController,14,_Trial_,End,1717509076867,undefined,undefined,undefined,undefined,undefined,undefined,undefined,undefined,undefined,undefined,28,green,gray,true,NULL
1717509235,97c6387f0e7bb2e525920ca89da0e708,PennController,14,0,test,NULL,PennController,15,_Header_,Start,1717509076874,undefined,undefined,undefined,undefined,undefined,undefined,undefined,undefined,undefined,undefined,28,жёлтый,yellow,true,NULL
1717509235,97c6387f0e7bb2e525920ca89da0e708,PennController,14,0,test,NULL,PennController,15,_Trial_,Start,1717509076874,undefined,undefined,undefined,undefined,undefined,undefined,undefined,undefined,undefined,undefined,28,жёлтый,yellow,true,NULL
1717509235,97c6387f0e7bb2e525920ca89da0e708,PennController,14,0,test,NULL,PennController,15,_Header_,End,1717509076875,undefined,undefined,undefined,undefined,undefined,undefined,undefined,undefined,undefined,undefined,28,жёлтый,yellow,true,NULL
1717509235,97c6387f0e7bb2e525920ca89da0e708,PennController,14,0,test,NULL,Timer,allotted time,Start,Start,1717509077383,undefined,undefined,undefined,undefined,undefined,undefined,undefined,undefined,undefined,undefined,28,жёлтый,yellow,true,NULL
1717509235,97c6387f0e7bb2e525920ca89da0e708,PennController,14,0,test,NULL,Timer,allotted time,End,End,1717509078857,undefined,undefined,undefined,undefined,undefined,undefined,undefined,undefined,undefined,undefined,28,жёлтый,yellow,true,NULL
1717509235,97c6387f0e7bb2e525920ca89da0e708,PennController,14,0,test,NULL,PennController,15,_Trial_,End,1717509079868,undefined,undefined,undefined,undefined,undefined,undefined,undefined,undefined,undefined,undefined,28,жёлтый,yellow,true,NULL
1717509235,97c6387f0e7bb2e525920ca89da0e708,PennController,15,0,test,NULL,PennController,16,_Header_,Start,1717509079876,undefined,undefined,undefined,undefined,undefined,undefined,undefined,undefined,undefined,undefined,28,синий,darkred,true,NULL
1717509235,97c6387f0e7bb2e525920ca89da0e708,PennController,15,0,test,NULL,PennController,16,_Trial_,Start,1717509079876,undefined,undefined,undefined,undefined,undefined,undefined,undefined,undefined,undefined,undefined,28,синий,darkred,true,NULL
1717509235,97c6387f0e7bb2e525920ca89da0e708,PennController,15,0,test,NULL,PennController,16,_Header_,End,1717509079878,undefined,undefined,undefined,undefined,undefined,undefined,undefined,undefined,undefined,undefined,28,синий,darkred,true,NULL
1717509235,97c6387f0e7bb2e525920ca89da0e708,PennController,15,0,test,NULL,Timer,allotted time,Start,Start,1717509080384,undefined,undefined,undefined,undefined,undefined,undefined,undefined,undefined,undefined,undefined,28,синий,darkred,true,NULL
1717509235,97c6387f0e7bb2e525920ca89da0e708,PennController,15,0,test,NULL,Timer,allotted time,End,End,1717509083015,undefined,undefined,undefined,undefined,undefined,undefined,undefined,undefined,undefined,undefined,28,синий,darkred,true,NULL
1717509235,97c6387f0e7bb2e525920ca89da0e708,PennController,15,0,test,NULL,PennController,16,_Trial_,End,1717509084022,undefined,undefined,undefined,undefined,undefined,undefined,undefined,undefined,undefined,undefined,28,синий,darkred,true,NULL
1717509235,97c6387f0e7bb2e525920ca89da0e708,PennController,16,0,test,NULL,PennController,17,_Header_,Start,1717509084029,undefined,undefined,undefined,undefined,undefined,undefined,undefined,undefined,undefined,undefined,28,brown,skyblue,true,NULL
1717509235,97c6387f0e7bb2e525920ca89da0e708,PennController,16,0,test,NULL,PennController,17,_Trial_,Start,1717509084029,undefined,undefined,undefined,undefined,undefined,undefined,undefined,undefined,undefined,undefined,28,brown,skyblue,true,NULL
1717509235,97c6387f0e7bb2e525920ca89da0e708,PennController,16,0,test,NULL,PennController,17,_Header_,End,1717509084030,undefined,undefined,undefined,undefined,undefined,undefined,undefined,undefined,undefined,undefined,28,brown,skyblue,true,NULL
1717509235,97c6387f0e7bb2e525920ca89da0e708,PennController,16,0,test,NULL,Timer,allotted time,Start,Start,1717509084533,undefined,undefined,undefined,undefined,undefined,undefined,undefined,undefined,undefined,undefined,28,brown,skyblue,true,NULL
1717509235,97c6387f0e7bb2e525920ca89da0e708,PennController,16,0,test,NULL,Timer,allotted time,End,End,1717509086374,undefined,undefined,undefined,undefined,undefined,undefined,undefined,undefined,undefined,undefined,28,brown,skyblue,true,NULL
1717509235,97c6387f0e7bb2e525920ca89da0e708,PennController,16,0,test,NULL,PennController,17,_Trial_,End,1717509087385,undefined,undefined,undefined,undefined,undefined,undefined,undefined,undefined,undefined,undefined,28,brown,skyblue,true,NULL
1717509235,97c6387f0e7bb2e525920ca89da0e708,PennController,17,0,test,NULL,PennController,18,_Header_,Start,1717509087392,undefined,undefined,undefined,undefined,undefined,undefined,undefined,undefined,undefined,undefined,28,green,green,true,NULL
1717509235,97c6387f0e7bb2e525920ca89da0e708,PennController,17,0,test,NULL,PennController,18,_Trial_,Start,1717509087392,undefined,undefined,undefined,undefined,undefined,undefined,undefined,undefined,undefined,undefined,28,green,green,true,NULL
1717509235,97c6387f0e7bb2e525920ca89da0e708,PennController,17,0,test,NULL,PennController,18,_Header_,End,1717509087393,undefined,undefined,undefined,undefined,undefined,undefined,undefined,undefined,undefined,undefined,28,green,green,true,NULL
1717509235,97c6387f0e7bb2e525920ca89da0e708,PennController,17,0,test,NULL,Timer,allotted time,Start,Start,1717509087897,undefined,undefined,undefined,undefined,undefined,undefined,undefined,undefined,undefined,undefined,28,green,green,true,NULL
1717509235,97c6387f0e7bb2e525920ca89da0e708,PennController,17,0,test,NULL,Timer,allotted time,End,End,1717509089681,undefined,undefined,undefined,undefined,undefined,undefined,undefined,undefined,undefined,undefined,28,green,green,true,NULL
1717509235,97c6387f0e7bb2e525920ca89da0e708,PennController,17,0,test,NULL,PennController,18,_Trial_,End,1717509090690,undefined,undefined,undefined,undefined,undefined,undefined,undefined,undefined,undefined,undefined,28,green,green,true,NULL
1717509235,97c6387f0e7bb2e525920ca89da0e708,PennController,18,0,test,NULL,PennController,19,_Header_,Start,1717509090698,undefined,undefined,undefined,undefined,undefined,undefined,undefined,undefined,undefined,undefined,28,розовый,khaki,true,NULL
1717509235,97c6387f0e7bb2e525920ca89da0e708,PennController,18,0,test,NULL,PennController,19,_Trial_,Start,1717509090698,undefined,undefined,undefined,undefined,undefined,undefined,undefined,undefined,undefined,undefined,28,розовый,khaki,true,NULL
1717509235,97c6387f0e7bb2e525920ca89da0e708,PennController,18,0,test,NULL,PennController,19,_Header_,End,1717509090699,undefined,undefined,undefined,undefined,undefined,undefined,undefined,undefined,undefined,undefined,28,розовый,khaki,true,NULL
1717509235,97c6387f0e7bb2e525920ca89da0e708,PennController,18,0,test,NULL,Timer,allotted time,Start,Start,1717509091206,undefined,undefined,undefined,undefined,undefined,undefined,undefined,undefined,undefined,undefined,28,розовый,khaki,true,NULL
1717509235,97c6387f0e7bb2e525920ca89da0e708,PennController,18,0,test,NULL,Timer,allotted time,End,End,1717509092540,undefined,undefined,undefined,undefined,undefined,undefined,undefined,undefined,undefined,undefined,28,розовый,khaki,true,NULL
1717509235,97c6387f0e7bb2e525920ca89da0e708,PennController,18,0,test,NULL,PennController,19,_Trial_,End,1717509093546,undefined,undefined,undefined,undefined,undefined,undefined,undefined,undefined,undefined,undefined,28,розовый,khaki,true,NULL
1717509235,97c6387f0e7bb2e525920ca89da0e708,PennController,19,0,test,NULL,PennController,20,_Header_,Start,1717509093553,undefined,undefined,undefined,undefined,undefined,undefined,undefined,undefined,undefined,undefined,28,white,black,true,NULL
1717509235,97c6387f0e7bb2e525920ca89da0e708,PennController,19,0,test,NULL,PennController,20,_Trial_,Start,1717509093553,undefined,undefined,undefined,undefined,undefined,undefined,undefined,undefined,undefined,undefined,28,white,black,true,NULL
1717509235,97c6387f0e7bb2e525920ca89da0e708,PennController,19,0,test,NULL,PennController,20,_Header_,End,1717509093554,undefined,undefined,undefined,undefined,undefined,undefined,undefined,undefined,undefined,undefined,28,white,black,true,NULL
1717509235,97c6387f0e7bb2e525920ca89da0e708,PennController,19,0,test,NULL,Timer,allotted time,Start,Start,1717509094061,undefined,undefined,undefined,undefined,undefined,undefined,undefined,undefined,undefined,undefined,28,white,black,true,NULL
1717509235,97c6387f0e7bb2e525920ca89da0e708,PennController,19,0,test,NULL,Timer,allotted time,End,End,1717509095582,undefined,undefined,undefined,undefined,undefined,undefined,undefined,undefined,undefined,undefined,28,white,black,true,NULL
1717509235,97c6387f0e7bb2e525920ca89da0e708,PennController,19,0,test,NULL,PennController,20,_Trial_,End,1717509096592,undefined,undefined,undefined,undefined,undefined,undefined,undefined,undefined,undefined,undefined,28,white,black,true,NULL
1717509235,97c6387f0e7bb2e525920ca89da0e708,PennController,20,0,test,NULL,PennController,21,_Header_,Start,1717509096598,undefined,undefined,undefined,undefined,undefined,undefined,undefined,undefined,undefined,undefined,28,серый,black,true,NULL
1717509235,97c6387f0e7bb2e525920ca89da0e708,PennController,20,0,test,NULL,PennController,21,_Trial_,Start,1717509096598,undefined,undefined,undefined,undefined,undefined,undefined,undefined,undefined,undefined,undefined,28,серый,black,true,NULL
1717509235,97c6387f0e7bb2e525920ca89da0e708,PennController,20,0,test,NULL,PennController,21,_Header_,End,1717509096600,undefined,undefined,undefined,undefined,undefined,undefined,undefined,undefined,undefined,undefined,28,серый,black,true,NULL
1717509235,97c6387f0e7bb2e525920ca89da0e708,PennController,20,0,test,NULL,Timer,allotted time,Start,Start,1717509097105,undefined,undefined,undefined,undefined,undefined,undefined,undefined,undefined,undefined,undefined,28,серый,black,true,NULL
1717509235,97c6387f0e7bb2e525920ca89da0e708,PennController,20,0,test,NULL,Timer,allotted time,End,End,1717509098557,undefined,undefined,undefined,undefined,undefined,undefined,undefined,undefined,undefined,undefined,28,серый,black,true,NULL
1717509235,97c6387f0e7bb2e525920ca89da0e708,PennController,20,0,test,NULL,PennController,21,_Trial_,End,1717509099564,undefined,undefined,undefined,undefined,undefined,undefined,undefined,undefined,undefined,undefined,28,серый,black,true,NULL
1717509235,97c6387f0e7bb2e525920ca89da0e708,PennController,21,0,test,NULL,PennController,22,_Header_,Start,1717509099572,undefined,undefined,undefined,undefined,undefined,undefined,undefined,undefined,undefined,undefined,28,оранжевый,orange,true,NULL
1717509235,97c6387f0e7bb2e525920ca89da0e708,PennController,21,0,test,NULL,PennController,22,_Trial_,Start,1717509099572,undefined,undefined,undefined,undefined,undefined,undefined,undefined,undefined,undefined,undefined,28,оранжевый,orange,true,NULL
1717509235,97c6387f0e7bb2e525920ca89da0e708,PennController,21,0,test,NULL,PennController,22,_Header_,End,1717509099574,undefined,undefined,undefined,undefined,undefined,undefined,undefined,undefined,undefined,undefined,28,оранжевый,orange,true,NULL
1717509235,97c6387f0e7bb2e525920ca89da0e708,PennController,21,0,test,NULL,Timer,allotted time,Start,Start,1717509100078,undefined,undefined,undefined,undefined,undefined,undefined,undefined,undefined,undefined,undefined,28,оранжевый,orange,true,NULL
1717509235,97c6387f0e7bb2e525920ca89da0e708,PennController,21,0,test,NULL,Timer,allotted time,End,End,1717509101647,undefined,undefined,undefined,undefined,undefined,undefined,undefined,undefined,undefined,undefined,28,оранжевый,orange,true,NULL
1717509235,97c6387f0e7bb2e525920ca89da0e708,PennController,21,0,test,NULL,PennController,22,_Trial_,End,1717509102659,undefined,undefined,undefined,undefined,undefined,undefined,undefined,undefined,undefined,undefined,28,оранжевый,orange,true,NULL
1717509235,97c6387f0e7bb2e525920ca89da0e708,PennController,22,0,test,NULL,PennController,23,_Header_,Start,1717509102665,undefined,undefined,undefined,undefined,undefined,undefined,undefined,undefined,undefined,undefined,28,коричневый,darkred,false,NULL
1717509235,97c6387f0e7bb2e525920ca89da0e708,PennController,22,0,test,NULL,PennController,23,_Trial_,Start,1717509102665,undefined,undefined,undefined,undefined,undefined,undefined,undefined,undefined,undefined,undefined,28,коричневый,darkred,false,NULL
1717509235,97c6387f0e7bb2e525920ca89da0e708,PennController,22,0,test,NULL,PennController,23,_Header_,End,1717509102666,undefined,undefined,undefined,undefined,undefined,undefined,undefined,undefined,undefined,undefined,28,коричневый,darkred,false,NULL
1717509235,97c6387f0e7bb2e525920ca89da0e708,PennController,22,0,test,NULL,Timer,allotted time,Start,Start,1717509103170,undefined,undefined,undefined,undefined,undefined,undefined,undefined,undefined,undefined,undefined,28,коричневый,darkred,false,NULL
1717509235,97c6387f0e7bb2e525920ca89da0e708,PennController,22,0,test,NULL,Timer,allotted time,End,End,1717509107648,undefined,undefined,undefined,undefined,undefined,undefined,undefined,undefined,undefined,undefined,28,коричневый,darkred,false,NULL
1717509235,97c6387f0e7bb2e525920ca89da0e708,PennController,22,0,test,NULL,PennController,23,_Trial_,End,1717509108658,undefined,undefined,undefined,undefined,undefined,undefined,undefined,undefined,undefined,undefined,28,коричневый,darkred,false,NULL
# 24. Comments.
1717509235,97c6387f0e7bb2e525920ca89da0e708,PennController,23,0,experiment,NULL,PennController,6,_Header_,Start,1717509108664,undefined,undefined,undefined,undefined,undefined,undefined,undefined,undefined,undefined,undefined,28,NULL
1717509235,97c6387f0e7bb2e525920ca89da0e708,PennController,23,0,experiment,NULL,PennController,6,_Trial_,Start,1717509108664,undefined,undefined,undefined,undefined,undefined,undefined,undefined,undefined,undefined,undefined,28,NULL
1717509235,97c6387f0e7bb2e525920ca89da0e708,PennController,23,0,experiment,NULL,PennController,6,_Header_,End,1717509108666,undefined,undefined,undefined,undefined,undefined,undefined,undefined,undefined,undefined,undefined,28,NULL
1717509235,97c6387f0e7bb2e525920ca89da0e708,PennController,23,0,experiment,NULL,PennController,6,_Trial_,End,1717509119528,undefined,undefined,undefined,undefined,undefined,undefined,undefined,undefined,undefined,undefined,28,NULL
# 24. Word.
# 25. Color.
# 26. Correct.
# 27. Comments.
1717509235,97c6387f0e7bb2e525920ca89da0e708,PennController,24,0,experiment,NULL,PennController,24,_Header_,Start,1717509119533,undefined,undefined,undefined,undefined,undefined,undefined,undefined,undefined,undefined,undefined,28,серый,purple,true,NULL
1717509235,97c6387f0e7bb2e525920ca89da0e708,PennController,24,0,experiment,NULL,PennController,24,_Trial_,Start,1717509119533,undefined,undefined,undefined,undefined,undefined,undefined,undefined,undefined,undefined,undefined,28,серый,purple,true,NULL
1717509235,97c6387f0e7bb2e525920ca89da0e708,PennController,24,0,experiment,NULL,PennController,24,_Header_,End,1717509119534,undefined,undefined,undefined,undefined,undefined,undefined,undefined,undefined,undefined,undefined,28,серый,purple,true,NULL
1717509235,97c6387f0e7bb2e525920ca89da0e708,PennController,24,0,experiment,NULL,Timer,allotted time,Start,Start,1717509120039,undefined,undefined,undefined,undefined,undefined,undefined,undefined,undefined,undefined,undefined,28,серый,purple,true,NULL
1717509235,97c6387f0e7bb2e525920ca89da0e708,PennController,24,0,experiment,NULL,Scale,answer,Choice,&emsp;0&emsp;,1717509122696,undefined,undefined,undefined,undefined,undefined,undefined,undefined,undefined,undefined,undefined,28,серый,purple,true,NULL
1717509235,97c6387f0e7bb2e525920ca89da0e708,PennController,24,0,experiment,NULL,Timer,allotted time,End,End,1717509122696,undefined,undefined,undefined,undefined,undefined,undefined,undefined,undefined,undefined,undefined,28,серый,purple,true,NULL
1717509235,97c6387f0e7bb2e525920ca89da0e708,PennController,24,0,experiment,NULL,PennController,24,_Trial_,End,1717509123701,undefined,undefined,undefined,undefined,undefined,undefined,undefined,undefined,undefined,undefined,28,серый,purple,true,NULL
1717509235,97c6387f0e7bb2e525920ca89da0e708,PennController,25,0,experiment,NULL,PennController,25,_Header_,Start,1717509123706,undefined,undefined,undefined,undefined,undefined,undefined,undefined,undefined,undefined,undefined,28,оранжевый,black,true,NULL
1717509235,97c6387f0e7bb2e525920ca89da0e708,PennController,25,0,experiment,NULL,PennController,25,_Trial_,Start,1717509123706,undefined,undefined,undefined,undefined,undefined,undefined,undefined,undefined,undefined,undefined,28,оранжевый,black,true,NULL
1717509235,97c6387f0e7bb2e525920ca89da0e708,PennController,25,0,experiment,NULL,PennController,25,_Header_,End,1717509123707,undefined,undefined,undefined,undefined,undefined,undefined,undefined,undefined,undefined,undefined,28,оранжевый,black,true,NULL
1717509235,97c6387f0e7bb2e525920ca89da0e708,PennController,25,0,experiment,NULL,Timer,allotted time,Start,Start,1717509124210,undefined,undefined,undefined,undefined,undefined,undefined,undefined,undefined,undefined,undefined,28,оранжевый,black,true,NULL
1717509235,97c6387f0e7bb2e525920ca89da0e708,PennController,25,0,experiment,NULL,Scale,answer,Choice,&emsp;0&emsp;,1717509125691,undefined,undefined,undefined,undefined,undefined,undefined,undefined,undefined,undefined,undefined,28,оранжевый,black,true,NULL
1717509235,97c6387f0e7bb2e525920ca89da0e708,PennController,25,0,experiment,NULL,Timer,allotted time,End,End,1717509125691,undefined,undefined,undefined,undefined,undefined,undefined,undefined,undefined,undefined,undefined,28,оранжевый,black,true,NULL
1717509235,97c6387f0e7bb2e525920ca89da0e708,PennController,25,0,experiment,NULL,PennController,25,_Trial_,End,1717509126701,undefined,undefined,undefined,undefined,undefined,undefined,undefined,undefined,undefined,undefined,28,оранжевый,black,true,NULL
1717509235,97c6387f0e7bb2e525920ca89da0e708,PennController,26,0,experiment,NULL,PennController,26,_Header_,Start,1717509126708,undefined,undefined,undefined,undefined,undefined,undefined,undefined,undefined,undefined,undefined,28,gray,purple,true,NULL
1717509235,97c6387f0e7bb2e525920ca89da0e708,PennController,26,0,experiment,NULL,PennController,26,_Trial_,Start,1717509126708,undefined,undefined,undefined,undefined,undefined,undefined,undefined,undefined,undefined,undefined,28,gray,purple,true,NULL
1717509235,97c6387f0e7bb2e525920ca89da0e708,PennController,26,0,experiment,NULL,PennController,26,_Header_,End,1717509126709,undefined,undefined,undefined,undefined,undefined,undefined,undefined,undefined,undefined,undefined,28,gray,purple,true,NULL
1717509235,97c6387f0e7bb2e525920ca89da0e708,PennController,26,0,experiment,NULL,Timer,allotted time,Start,Start,1717509127212,undefined,undefined,undefined,undefined,undefined,undefined,undefined,undefined,undefined,undefined,28,gray,purple,true,NULL
1717509235,97c6387f0e7bb2e525920ca89da0e708,PennController,26,0,experiment,NULL,Scale,answer,Choice,&emsp;0&emsp;,1717509128904,undefined,undefined,undefined,undefined,undefined,undefined,undefined,undefined,undefined,undefined,28,gray,purple,true,NULL
1717509235,97c6387f0e7bb2e525920ca89da0e708,PennController,26,0,experiment,NULL,Timer,allotted time,End,End,1717509128905,undefined,undefined,undefined,undefined,undefined,undefined,undefined,undefined,undefined,undefined,28,gray,purple,true,NULL
1717509235,97c6387f0e7bb2e525920ca89da0e708,PennController,26,0,experiment,NULL,PennController,26,_Trial_,End,1717509129914,undefined,undefined,undefined,undefined,undefined,undefined,undefined,undefined,undefined,undefined,28,gray,purple,true,NULL
1717509235,97c6387f0e7bb2e525920ca89da0e708,PennController,27,0,experiment,NULL,PennController,27,_Header_,Start,1717509129922,undefined,undefined,undefined,undefined,undefined,undefined,undefined,undefined,undefined,undefined,28,purple,purple,true,NULL
1717509235,97c6387f0e7bb2e525920ca89da0e708,PennController,27,0,experiment,NULL,PennController,27,_Trial_,Start,1717509129922,undefined,undefined,undefined,undefined,undefined,undefined,undefined,undefined,undefined,undefined,28,purple,purple,true,NULL
1717509235,97c6387f0e7bb2e525920ca89da0e708,PennController,27,0,experiment,NULL,PennController,27,_Header_,End,1717509129923,undefined,undefined,undefined,undefined,undefined,undefined,undefined,undefined,undefined,undefined,28,purple,purple,true,NULL
1717509235,97c6387f0e7bb2e525920ca89da0e708,PennController,27,0,experiment,NULL,Timer,allotted time,Start,Start,1717509130431,undefined,undefined,undefined,undefined,undefined,undefined,undefined,undefined,undefined,undefined,28,purple,purple,true,NULL
1717509235,97c6387f0e7bb2e525920ca89da0e708,PennController,27,0,experiment,NULL,Scale,answer,Choice,&emsp;1&emsp;,1717509131562,undefined,undefined,undefined,undefined,undefined,undefined,undefined,undefined,undefined,undefined,28,purple,purple,true,NULL
1717509235,97c6387f0e7bb2e525920ca89da0e708,PennController,27,0,experiment,NULL,Timer,allotted time,End,End,1717509131562,undefined,undefined,undefined,undefined,undefined,undefined,undefined,undefined,undefined,undefined,28,purple,purple,true,NULL
1717509235,97c6387f0e7bb2e525920ca89da0e708,PennController,27,0,experiment,NULL,PennController,27,_Trial_,End,1717509132571,undefined,undefined,undefined,undefined,undefined,undefined,undefined,undefined,undefined,undefined,28,purple,purple,true,NULL
1717509235,97c6387f0e7bb2e525920ca89da0e708,PennController,28,0,experiment,NULL,PennController,28,_Header_,Start,1717509132578,undefined,undefined,undefined,undefined,undefined,undefined,undefined,undefined,undefined,undefined,28,красный,red,true,NULL
1717509235,97c6387f0e7bb2e525920ca89da0e708,PennController,28,0,experiment,NULL,PennController,28,_Trial_,Start,1717509132578,undefined,undefined,undefined,undefined,undefined,undefined,undefined,undefined,undefined,undefined,28,красный,red,true,NULL
1717509235,97c6387f0e7bb2e525920ca89da0e708,PennController,28,0,experiment,NULL,PennController,28,_Header_,End,1717509132580,undefined,undefined,undefined,undefined,undefined,undefined,undefined,undefined,undefined,undefined,28,красный,red,true,NULL
1717509235,97c6387f0e7bb2e525920ca89da0e708,PennController,28,0,experiment,NULL,Timer,allotted time,Start,Start,1717509133087,undefined,undefined,undefined,undefined,undefined,undefined,undefined,undefined,undefined,undefined,28,красный,red,true,NULL
1717509235,97c6387f0e7bb2e525920ca89da0e708,PennController,28,0,experiment,NULL,Scale,answer,Choice,&emsp;1&emsp;,1717509134140,undefined,undefined,undefined,undefined,undefined,undefined,undefined,undefined,undefined,undefined,28,красный,red,true,NULL
1717509235,97c6387f0e7bb2e525920ca89da0e708,PennController,28,0,experiment,NULL,Timer,allotted time,End,End,1717509134141,undefined,undefined,undefined,undefined,undefined,undefined,undefined,undefined,undefined,undefined,28,красный,red,true,NULL
1717509235,97c6387f0e7bb2e525920ca89da0e708,PennController,28,0,experiment,NULL,PennController,28,_Trial_,End,1717509135149,undefined,undefined,undefined,undefined,undefined,undefined,undefined,undefined,undefined,undefined,28,красный,red,true,NULL
1717509235,97c6387f0e7bb2e525920ca89da0e708,PennController,29,0,experiment,NULL,PennController,29,_Header_,Start,1717509135156,undefined,undefined,undefined,undefined,undefined,undefined,undefined,undefined,undefined,undefined,28,чёрный,black,true,NULL
1717509235,97c6387f0e7bb2e525920ca89da0e708,PennController,29,0,experiment,NULL,PennController,29,_Trial_,Start,1717509135156,undefined,undefined,undefined,undefined,undefined,undefined,undefined,undefined,undefined,undefined,28,чёрный,black,true,NULL
1717509235,97c6387f0e7bb2e525920ca89da0e708,PennController,29,0,experiment,NULL,PennController,29,_Header_,End,1717509135157,undefined,undefined,undefined,undefined,undefined,undefined,undefined,undefined,undefined,undefined,28,чёрный,black,true,NULL
1717509235,97c6387f0e7bb2e525920ca89da0e708,PennController,29,0,experiment,NULL,Timer,allotted time,Start,Start,1717509135661,undefined,undefined,undefined,undefined,undefined,undefined,undefined,undefined,undefined,undefined,28,чёрный,black,true,NULL
1717509235,97c6387f0e7bb2e525920ca89da0e708,PennController,29,0,experiment,NULL,Scale,answer,Choice,&emsp;1&emsp;,1717509136598,undefined,undefined,undefined,undefined,undefined,undefined,undefined,undefined,undefined,undefined,28,чёрный,black,true,NULL
1717509235,97c6387f0e7bb2e525920ca89da0e708,PennController,29,0,experiment,NULL,Timer,allotted time,End,End,1717509136598,undefined,undefined,undefined,undefined,undefined,undefined,undefined,undefined,undefined,undefined,28,чёрный,black,true,NULL
1717509235,97c6387f0e7bb2e525920ca89da0e708,PennController,29,0,experiment,NULL,PennController,29,_Trial_,End,1717509137603,undefined,undefined,undefined,undefined,undefined,undefined,undefined,undefined,undefined,undefined,28,чёрный,black,true,NULL
1717509235,97c6387f0e7bb2e525920ca89da0e708,PennController,30,0,experiment,NULL,PennController,30,_Header_,Start,1717509137610,undefined,undefined,undefined,undefined,undefined,undefined,undefined,undefined,undefined,undefined,28,зелёный,green,true,NULL
1717509235,97c6387f0e7bb2e525920ca89da0e708,PennController,30,0,experiment,NULL,PennController,30,_Trial_,Start,1717509137610,undefined,undefined,undefined,undefined,undefined,undefined,undefined,undefined,undefined,undefined,28,зелёный,green,true,NULL
1717509235,97c6387f0e7bb2e525920ca89da0e708,PennController,30,0,experiment,NULL,PennController,30,_Header_,End,1717509137611,undefined,undefined,undefined,undefined,undefined,undefined,undefined,undefined,undefined,undefined,28,зелёный,green,true,NULL
1717509235,97c6387f0e7bb2e525920ca89da0e708,PennController,30,0,experiment,NULL,Timer,allotted time,Start,Start,1717509138117,undefined,undefined,undefined,undefined,undefined,undefined,undefined,undefined,undefined,undefined,28,зелёный,green,true,NULL
1717509235,97c6387f0e7bb2e525920ca89da0e708,PennController,30,0,experiment,NULL,Scale,answer,Choice,&emsp;1&emsp;,1717509139012,undefined,undefined,undefined,undefined,undefined,undefined,undefined,undefined,undefined,undefined,28,зелёный,green,true,NULL
1717509235,97c6387f0e7bb2e525920ca89da0e708,PennController,30,0,experiment,NULL,Timer,allotted time,End,End,1717509139013,undefined,undefined,undefined,undefined,undefined,undefined,undefined,undefined,undefined,undefined,28,зелёный,green,true,NULL
1717509235,97c6387f0e7bb2e525920ca89da0e708,PennController,30,0,experiment,NULL,PennController,30,_Trial_,End,1717509140019,undefined,undefined,undefined,undefined,undefined,undefined,undefined,undefined,undefined,undefined,28,зелёный,green,true,NULL
1717509235,97c6387f0e7bb2e525920ca89da0e708,PennController,31,0,experiment,NULL,PennController,31,_Header_,Start,1717509140025,undefined,undefined,undefined,undefined,undefined,undefined,undefined,undefined,undefined,undefined,28,orange,black,true,NULL
1717509235,97c6387f0e7bb2e525920ca89da0e708,PennController,31,0,experiment,NULL,PennController,31,_Trial_,Start,1717509140025,undefined,undefined,undefined,undefined,undefined,undefined,undefined,undefined,undefined,undefined,28,orange,black,true,NULL
1717509235,97c6387f0e7bb2e525920ca89da0e708,PennController,31,0,experiment,NULL,PennController,31,_Header_,End,1717509140027,undefined,undefined,undefined,undefined,undefined,undefined,undefined,undefined,undefined,undefined,28,orange,black,true,NULL
1717509235,97c6387f0e7bb2e525920ca89da0e708,PennController,31,0,experiment,NULL,Timer,allotted time,Start,Start,1717509140533,undefined,undefined,undefined,undefined,undefined,undefined,undefined,undefined,undefined,undefined,28,orange,black,true,NULL
1717509235,97c6387f0e7bb2e525920ca89da0e708,PennController,31,0,experiment,NULL,Scale,answer,Choice,&emsp;0&emsp;,1717509141569,undefined,undefined,undefined,undefined,undefined,undefined,undefined,undefined,undefined,undefined,28,orange,black,true,NULL
1717509235,97c6387f0e7bb2e525920ca89da0e708,PennController,31,0,experiment,NULL,Timer,allotted time,End,End,1717509141569,undefined,undefined,undefined,undefined,undefined,undefined,undefined,undefined,undefined,undefined,28,orange,black,true,NULL
1717509235,97c6387f0e7bb2e525920ca89da0e708,PennController,31,0,experiment,NULL,PennController,31,_Trial_,End,1717509142578,undefined,undefined,undefined,undefined,undefined,undefined,undefined,undefined,undefined,undefined,28,orange,black,true,NULL
1717509235,97c6387f0e7bb2e525920ca89da0e708,PennController,32,0,experiment,NULL,PennController,32,_Header_,Start,1717509142584,undefined,undefined,undefined,undefined,undefined,undefined,undefined,undefined,undefined,undefined,28,синий,navy,true,NULL
1717509235,97c6387f0e7bb2e525920ca89da0e708,PennController,32,0,experiment,NULL,PennController,32,_Trial_,Start,1717509142584,undefined,undefined,undefined,undefined,undefined,undefined,undefined,undefined,undefined,undefined,28,синий,navy,true,NULL
1717509235,97c6387f0e7bb2e525920ca89da0e708,PennController,32,0,experiment,NULL,PennController,32,_Header_,End,1717509142585,undefined,undefined,undefined,undefined,undefined,undefined,undefined,undefined,undefined,undefined,28,синий,navy,true,NULL
1717509235,97c6387f0e7bb2e525920ca89da0e708,PennController,32,0,experiment,NULL,Timer,allotted time,Start,Start,1717509143091,undefined,undefined,undefined,undefined,undefined,undefined,undefined,undefined,undefined,undefined,28,синий,navy,true,NULL
1717509235,97c6387f0e7bb2e525920ca89da0e708,PennController,32,0,experiment,NULL,Scale,answer,Choice,&emsp;1&emsp;,1717509144082,undefined,undefined,undefined,undefined,undefined,undefined,undefined,undefined,undefined,undefined,28,синий,navy,true,NULL
1717509235,97c6387f0e7bb2e525920ca89da0e708,PennController,32,0,experiment,NULL,Timer,allotted time,End,End,1717509144082,undefined,undefined,undefined,undefined,undefined,undefined,undefined,undefined,undefined,undefined,28,синий,navy,true,NULL
1717509235,97c6387f0e7bb2e525920ca89da0e708,PennController,32,0,experiment,NULL,PennController,32,_Trial_,End,1717509145090,undefined,undefined,undefined,undefined,undefined,undefined,undefined,undefined,undefined,undefined,28,синий,navy,true,NULL
1717509235,97c6387f0e7bb2e525920ca89da0e708,PennController,33,0,experiment,NULL,PennController,33,_Header_,Start,1717509145097,undefined,undefined,undefined,undefined,undefined,undefined,undefined,undefined,undefined,undefined,28,red,red,true,NULL
1717509235,97c6387f0e7bb2e525920ca89da0e708,PennController,33,0,experiment,NULL,PennController,33,_Trial_,Start,1717509145097,undefined,undefined,undefined,undefined,undefined,undefined,undefined,undefined,undefined,undefined,28,red,red,true,NULL
1717509235,97c6387f0e7bb2e525920ca89da0e708,PennController,33,0,experiment,NULL,PennController,33,_Header_,End,1717509145098,undefined,undefined,undefined,undefined,undefined,undefined,undefined,undefined,undefined,undefined,28,red,red,true,NULL
1717509235,97c6387f0e7bb2e525920ca89da0e708,PennController,33,0,experiment,NULL,Timer,allotted time,Start,Start,1717509145601,undefined,undefined,undefined,undefined,undefined,undefined,undefined,undefined,undefined,undefined,28,red,red,true,NULL
1717509235,97c6387f0e7bb2e525920ca89da0e708,PennController,33,0,experiment,NULL,Scale,answer,Choice,&emsp;1&emsp;,1717509146484,undefined,undefined,undefined,undefined,undefined,undefined,undefined,undefined,undefined,undefined,28,red,red,true,NULL
1717509235,97c6387f0e7bb2e525920ca89da0e708,PennController,33,0,experiment,NULL,Timer,allotted time,End,End,1717509146484,undefined,undefined,undefined,undefined,undefined,undefined,undefined,undefined,undefined,undefined,28,red,red,true,NULL
1717509235,97c6387f0e7bb2e525920ca89da0e708,PennController,33,0,experiment,NULL,PennController,33,_Trial_,End,1717509147490,undefined,undefined,undefined,undefined,undefined,undefined,undefined,undefined,undefined,undefined,28,red,red,true,NULL
1717509235,97c6387f0e7bb2e525920ca89da0e708,PennController,34,0,experiment,NULL,PennController,34,_Header_,Start,1717509147497,undefined,undefined,undefined,undefined,undefined,undefined,undefined,undefined,undefined,undefined,28,pink,yellow,true,NULL
1717509235,97c6387f0e7bb2e525920ca89da0e708,PennController,34,0,experiment,NULL,PennController,34,_Trial_,Start,1717509147497,undefined,undefined,undefined,undefined,undefined,undefined,undefined,undefined,undefined,undefined,28,pink,yellow,true,NULL
1717509235,97c6387f0e7bb2e525920ca89da0e708,PennController,34,0,experiment,NULL,PennController,34,_Header_,End,1717509147498,undefined,undefined,undefined,undefined,undefined,undefined,undefined,undefined,undefined,undefined,28,pink,yellow,true,NULL
1717509235,97c6387f0e7bb2e525920ca89da0e708,PennController,34,0,experiment,NULL,Timer,allotted time,Start,Start,1717509148001,undefined,undefined,undefined,undefined,undefined,undefined,undefined,undefined,undefined,undefined,28,pink,yellow,true,NULL
1717509235,97c6387f0e7bb2e525920ca89da0e708,PennController,34,0,experiment,NULL,Scale,answer,Choice,&emsp;0&emsp;,1717509149659,undefined,undefined,undefined,undefined,undefined,undefined,undefined,undefined,undefined,undefined,28,pink,yellow,true,NULL
1717509235,97c6387f0e7bb2e525920ca89da0e708,PennController,34,0,experiment,NULL,Timer,allotted time,End,End,1717509149660,undefined,undefined,undefined,undefined,undefined,undefined,undefined,undefined,undefined,undefined,28,pink,yellow,true,NULL
1717509235,97c6387f0e7bb2e525920ca89da0e708,PennController,34,0,experiment,NULL,PennController,34,_Trial_,End,1717509150666,undefined,undefined,undefined,undefined,undefined,undefined,undefined,undefined,undefined,undefined,28,pink,yellow,true,NULL
1717509235,97c6387f0e7bb2e525920ca89da0e708,PennController,35,0,experiment,NULL,PennController,35,_Header_,Start,1717509150672,undefined,undefined,undefined,undefined,undefined,undefined,undefined,undefined,undefined,undefined,28,black,navy,true,NULL
1717509235,97c6387f0e7bb2e525920ca89da0e708,PennController,35,0,experiment,NULL,PennController,35,_Trial_,Start,1717509150672,undefined,undefined,undefined,undefined,undefined,undefined,undefined,undefined,undefined,undefined,28,black,navy,true,NULL
1717509235,97c6387f0e7bb2e525920ca89da0e708,PennController,35,0,experiment,NULL,PennController,35,_Header_,End,1717509150673,undefined,undefined,undefined,undefined,undefined,undefined,undefined,undefined,undefined,undefined,28,black,navy,true,NULL
1717509235,97c6387f0e7bb2e525920ca89da0e708,PennController,35,0,experiment,NULL,Timer,allotted time,Start,Start,1717509151179,undefined,undefined,undefined,undefined,undefined,undefined,undefined,undefined,undefined,undefined,28,black,navy,true,NULL
1717509235,97c6387f0e7bb2e525920ca89da0e708,PennController,35,0,experiment,NULL,Scale,answer,Choice,&emsp;0&emsp;,1717509154499,undefined,undefined,undefined,undefined,undefined,undefined,undefined,undefined,undefined,undefined,28,black,navy,true,NULL
1717509235,97c6387f0e7bb2e525920ca89da0e708,PennController,35,0,experiment,NULL,Timer,allotted time,End,End,1717509154500,undefined,undefined,undefined,undefined,undefined,undefined,undefined,undefined,undefined,undefined,28,black,navy,true,NULL
1717509235,97c6387f0e7bb2e525920ca89da0e708,PennController,35,0,experiment,NULL,PennController,35,_Trial_,End,1717509155505,undefined,undefined,undefined,undefined,undefined,undefined,undefined,undefined,undefined,undefined,28,black,navy,true,NULL
1717509235,97c6387f0e7bb2e525920ca89da0e708,PennController,36,0,experiment,NULL,PennController,36,_Header_,Start,1717509155512,undefined,undefined,undefined,undefined,undefined,undefined,undefined,undefined,undefined,undefined,28,жёлтый,yellow,true,NULL
1717509235,97c6387f0e7bb2e525920ca89da0e708,PennController,36,0,experiment,NULL,PennController,36,_Trial_,Start,1717509155512,undefined,undefined,undefined,undefined,undefined,undefined,undefined,undefined,undefined,undefined,28,жёлтый,yellow,true,NULL
1717509235,97c6387f0e7bb2e525920ca89da0e708,PennController,36,0,experiment,NULL,PennController,36,_Header_,End,1717509155513,undefined,undefined,undefined,undefined,undefined,undefined,undefined,undefined,undefined,undefined,28,жёлтый,yellow,true,NULL
1717509235,97c6387f0e7bb2e525920ca89da0e708,PennController,36,0,experiment,NULL,Timer,allotted time,Start,Start,1717509156019,undefined,undefined,undefined,undefined,undefined,undefined,undefined,undefined,undefined,undefined,28,жёлтый,yellow,true,NULL
1717509235,97c6387f0e7bb2e525920ca89da0e708,PennController,36,0,experiment,NULL,Scale,answer,Choice,&emsp;1&emsp;,1717509176204,undefined,undefined,undefined,undefined,undefined,undefined,undefined,undefined,undefined,undefined,28,жёлтый,yellow,true,NULL
1717509235,97c6387f0e7bb2e525920ca89da0e708,PennController,36,0,experiment,NULL,Timer,allotted time,End,End,1717509176207,undefined,undefined,undefined,undefined,undefined,undefined,undefined,undefined,undefined,undefined,28,жёлтый,yellow,true,NULL
1717509235,97c6387f0e7bb2e525920ca89da0e708,PennController,36,0,experiment,NULL,PennController,36,_Trial_,End,1717509177219,undefined,undefined,undefined,undefined,undefined,undefined,undefined,undefined,undefined,undefined,28,жёлтый,yellow,true,NULL
1717509235,97c6387f0e7bb2e525920ca89da0e708,PennController,37,0,experiment,NULL,PennController,37,_Header_,Start,1717509177231,undefined,undefined,undefined,undefined,undefined,undefined,undefined,undefined,undefined,undefined,28,синий,navy,true,NULL
1717509235,97c6387f0e7bb2e525920ca89da0e708,PennController,37,0,experiment,NULL,PennController,37,_Trial_,Start,1717509177231,undefined,undefined,undefined,undefined,undefined,undefined,undefined,undefined,undefined,undefined,28,синий,navy,true,NULL
1717509235,97c6387f0e7bb2e525920ca89da0e708,PennController,37,0,experiment,NULL,PennController,37,_Header_,End,1717509177233,undefined,undefined,undefined,undefined,undefined,undefined,undefined,undefined,undefined,undefined,28,синий,navy,true,NULL
1717509235,97c6387f0e7bb2e525920ca89da0e708,PennController,37,0,experiment,NULL,Timer,allotted time,Start,Start,1717509177740,undefined,undefined,undefined,undefined,undefined,undefined,undefined,undefined,undefined,undefined,28,синий,navy,true,NULL
1717509235,97c6387f0e7bb2e525920ca89da0e708,PennController,37,0,experiment,NULL,Scale,answer,Choice,&emsp;1&emsp;,1717509178626,undefined,undefined,undefined,undefined,undefined,undefined,undefined,undefined,undefined,undefined,28,синий,navy,true,NULL
1717509235,97c6387f0e7bb2e525920ca89da0e708,PennController,37,0,experiment,NULL,Timer,allotted time,End,End,1717509178627,undefined,undefined,undefined,undefined,undefined,undefined,undefined,undefined,undefined,undefined,28,синий,navy,true,NULL
1717509235,97c6387f0e7bb2e525920ca89da0e708,PennController,37,0,experiment,NULL,PennController,37,_Trial_,End,1717509179634,undefined,undefined,undefined,undefined,undefined,undefined,undefined,undefined,undefined,undefined,28,синий,navy,true,NULL
1717509235,97c6387f0e7bb2e525920ca89da0e708,PennController,38,0,experiment,NULL,PennController,38,_Header_,Start,1717509179642,undefined,undefined,undefined,undefined,undefined,undefined,undefined,undefined,undefined,undefined,28,серый,navy,true,NULL
1717509235,97c6387f0e7bb2e525920ca89da0e708,PennController,38,0,experiment,NULL,PennController,38,_Trial_,Start,1717509179642,undefined,undefined,undefined,undefined,undefined,undefined,undefined,undefined,undefined,undefined,28,серый,navy,true,NULL
1717509235,97c6387f0e7bb2e525920ca89da0e708,PennController,38,0,experiment,NULL,PennController,38,_Header_,End,1717509179643,undefined,undefined,undefined,undefined,undefined,undefined,undefined,undefined,undefined,undefined,28,серый,navy,true,NULL
1717509235,97c6387f0e7bb2e525920ca89da0e708,PennController,38,0,experiment,NULL,Timer,allotted time,Start,Start,1717509180146,undefined,undefined,undefined,undefined,undefined,undefined,undefined,undefined,undefined,undefined,28,серый,navy,true,NULL
1717509235,97c6387f0e7bb2e525920ca89da0e708,PennController,38,0,experiment,NULL,Scale,answer,Choice,&emsp;0&emsp;,1717509181257,undefined,undefined,undefined,undefined,undefined,undefined,undefined,undefined,undefined,undefined,28,серый,navy,true,NULL
1717509235,97c6387f0e7bb2e525920ca89da0e708,PennController,38,0,experiment,NULL,Timer,allotted time,End,End,1717509181258,undefined,undefined,undefined,undefined,undefined,undefined,undefined,undefined,undefined,undefined,28,серый,navy,true,NULL
1717509235,97c6387f0e7bb2e525920ca89da0e708,PennController,38,0,experiment,NULL,PennController,38,_Trial_,End,1717509182265,undefined,undefined,undefined,undefined,undefined,undefined,undefined,undefined,undefined,undefined,28,серый,navy,true,NULL
1717509235,97c6387f0e7bb2e525920ca89da0e708,PennController,39,0,experiment,NULL,PennController,39,_Header_,End,1717509182269,undefined,undefined,undefined,undefined,undefined,undefined,undefined,undefined,undefined,undefined,28,green,green,true,NULL
1717509235,97c6387f0e7bb2e525920ca89da0e708,PennController,39,0,experiment,NULL,PennController,39,_Header_,Start,1717509182269,undefined,undefined,undefined,undefined,undefined,undefined,undefined,undefined,undefined,undefined,28,green,green,true,NULL
1717509235,97c6387f0e7bb2e525920ca89da0e708,PennController,39,0,experiment,NULL,PennController,39,_Trial_,Start,1717509182269,undefined,undefined,undefined,undefined,undefined,undefined,undefined,undefined,undefined,undefined,28,green,green,true,NULL
1717509235,97c6387f0e7bb2e525920ca89da0e708,PennController,39,0,experiment,NULL,Timer,allotted time,Start,Start,1717509182776,undefined,undefined,undefined,undefined,undefined,undefined,undefined,undefined,undefined,undefined,28,green,green,true,NULL
1717509235,97c6387f0e7bb2e525920ca89da0e708,PennController,39,0,experiment,NULL,Scale,answer,Choice,&emsp;1&emsp;,1717509184764,undefined,undefined,undefined,undefined,undefined,undefined,undefined,undefined,undefined,undefined,28,green,green,true,NULL
1717509235,97c6387f0e7bb2e525920ca89da0e708,PennController,39,0,experiment,NULL,Timer,allotted time,End,End,1717509184764,undefined,undefined,undefined,undefined,undefined,undefined,undefined,undefined,undefined,undefined,28,green,green,true,NULL
1717509235,97c6387f0e7bb2e525920ca89da0e708,PennController,39,0,experiment,NULL,PennController,39,_Trial_,End,1717509185774,undefined,undefined,undefined,undefined,undefined,undefined,undefined,undefined,undefined,undefined,28,green,green,true,NULL
1717509235,97c6387f0e7bb2e525920ca89da0e708,PennController,40,0,experiment,NULL,PennController,40,_Header_,Start,1717509185781,undefined,undefined,undefined,undefined,undefined,undefined,undefined,undefined,undefined,undefined,28,gray,gray,true,NULL
1717509235,97c6387f0e7bb2e525920ca89da0e708,PennController,40,0,experiment,NULL,PennController,40,_Trial_,Start,1717509185781,undefined,undefined,undefined,undefined,undefined,undefined,undefined,undefined,undefined,undefined,28,gray,gray,true,NULL
1717509235,97c6387f0e7bb2e525920ca89da0e708,PennController,40,0,experiment,NULL,PennController,40,_Header_,End,1717509185782,undefined,undefined,undefined,undefined,undefined,undefined,undefined,undefined,undefined,undefined,28,gray,gray,true,NULL
1717509235,97c6387f0e7bb2e525920ca89da0e708,PennController,40,0,experiment,NULL,Timer,allotted time,Start,Start,1717509186289,undefined,undefined,undefined,undefined,undefined,undefined,undefined,undefined,undefined,undefined,28,gray,gray,true,NULL
1717509235,97c6387f0e7bb2e525920ca89da0e708,PennController,40,0,experiment,NULL,Scale,answer,Choice,&emsp;1&emsp;,1717509187296,undefined,undefined,undefined,undefined,undefined,undefined,undefined,undefined,undefined,undefined,28,gray,gray,true,NULL
1717509235,97c6387f0e7bb2e525920ca89da0e708,PennController,40,0,experiment,NULL,Timer,allotted time,End,End,1717509187297,undefined,undefined,undefined,undefined,undefined,undefined,undefined,undefined,undefined,undefined,28,gray,gray,true,NULL
1717509235,97c6387f0e7bb2e525920ca89da0e708,PennController,40,0,experiment,NULL,PennController,40,_Trial_,End,1717509188304,undefined,undefined,undefined,undefined,undefined,undefined,undefined,undefined,undefined,undefined,28,gray,gray,true,NULL
1717509235,97c6387f0e7bb2e525920ca89da0e708,PennController,41,0,experiment,NULL,PennController,41,_Header_,Start,1717509188309,undefined,undefined,undefined,undefined,undefined,undefined,undefined,undefined,undefined,undefined,28,коричневый,black,true,NULL
1717509235,97c6387f0e7bb2e525920ca89da0e708,PennController,41,0,experiment,NULL,PennController,41,_Trial_,Start,1717509188309,undefined,undefined,undefined,undefined,undefined,undefined,undefined,undefined,undefined,undefined,28,коричневый,black,true,NULL
1717509235,97c6387f0e7bb2e525920ca89da0e708,PennController,41,0,experiment,NULL,PennController,41,_Header_,End,1717509188310,undefined,undefined,undefined,undefined,undefined,undefined,undefined,undefined,undefined,undefined,28,коричневый,black,true,NULL
1717509235,97c6387f0e7bb2e525920ca89da0e708,PennController,41,0,experiment,NULL,Timer,allotted time,Start,Start,1717509188816,undefined,undefined,undefined,undefined,undefined,undefined,undefined,undefined,undefined,undefined,28,коричневый,black,true,NULL
1717509235,97c6387f0e7bb2e525920ca89da0e708,PennController,41,0,experiment,NULL,Scale,answer,Choice,&emsp;0&emsp;,1717509189782,undefined,undefined,undefined,undefined,undefined,undefined,undefined,undefined,undefined,undefined,28,коричневый,black,true,NULL
1717509235,97c6387f0e7bb2e525920ca89da0e708,PennController,41,0,experiment,NULL,Timer,allotted time,End,End,1717509189783,undefined,undefined,undefined,undefined,undefined,undefined,undefined,undefined,undefined,undefined,28,коричневый,black,true,NULL
1717509235,97c6387f0e7bb2e525920ca89da0e708,PennController,41,0,experiment,NULL,PennController,41,_Trial_,End,1717509190791,undefined,undefined,undefined,undefined,undefined,undefined,undefined,undefined,undefined,undefined,28,коричневый,black,true,NULL
1717509235,97c6387f0e7bb2e525920ca89da0e708,PennController,42,0,experiment,NULL,PennController,42,_Header_,Start,1717509190798,undefined,undefined,undefined,undefined,undefined,undefined,undefined,undefined,undefined,undefined,28,фиолетовый,gray,true,NULL
1717509235,97c6387f0e7bb2e525920ca89da0e708,PennController,42,0,experiment,NULL,PennController,42,_Trial_,Start,1717509190798,undefined,undefined,undefined,undefined,undefined,undefined,undefined,undefined,undefined,undefined,28,фиолетовый,gray,true,NULL
1717509235,97c6387f0e7bb2e525920ca89da0e708,PennController,42,0,experiment,NULL,PennController,42,_Header_,End,1717509190799,undefined,undefined,undefined,undefined,undefined,undefined,undefined,undefined,undefined,undefined,28,фиолетовый,gray,true,NULL
1717509235,97c6387f0e7bb2e525920ca89da0e708,PennController,42,0,experiment,NULL,Timer,allotted time,Start,Start,1717509191302,undefined,undefined,undefined,undefined,undefined,undefined,undefined,undefined,undefined,undefined,28,фиолетовый,gray,true,NULL
1717509235,97c6387f0e7bb2e525920ca89da0e708,PennController,42,0,experiment,NULL,Scale,answer,Choice,&emsp;0&emsp;,1717509192708,undefined,undefined,undefined,undefined,undefined,undefined,undefined,undefined,undefined,undefined,28,фиолетовый,gray,true,NULL
1717509235,97c6387f0e7bb2e525920ca89da0e708,PennController,42,0,experiment,NULL,Timer,allotted time,End,End,1717509192709,undefined,undefined,undefined,undefined,undefined,undefined,undefined,undefined,undefined,undefined,28,фиолетовый,gray,true,NULL
1717509235,97c6387f0e7bb2e525920ca89da0e708,PennController,42,0,experiment,NULL,PennController,42,_Trial_,End,1717509193720,undefined,undefined,undefined,undefined,undefined,undefined,undefined,undefined,undefined,undefined,28,фиолетовый,gray,true,NULL
1717509235,97c6387f0e7bb2e525920ca89da0e708,PennController,43,0,experiment,NULL,PennController,43,_Header_,End,1717509193728,undefined,undefined,undefined,undefined,undefined,undefined,undefined,undefined,undefined,undefined,28,orange,pink,true,NULL
1717509235,97c6387f0e7bb2e525920ca89da0e708,PennController,43,0,experiment,NULL,PennController,43,_Header_,Start,1717509193728,undefined,undefined,undefined,undefined,undefined,undefined,undefined,undefined,undefined,undefined,28,orange,pink,true,NULL
1717509235,97c6387f0e7bb2e525920ca89da0e708,PennController,43,0,experiment,NULL,PennController,43,_Trial_,Start,1717509193728,undefined,undefined,undefined,undefined,undefined,undefined,undefined,undefined,undefined,undefined,28,orange,pink,true,NULL
1717509235,97c6387f0e7bb2e525920ca89da0e708,PennController,43,0,experiment,NULL,Timer,allotted time,Start,Start,1717509194235,undefined,undefined,undefined,undefined,undefined,undefined,undefined,undefined,undefined,undefined,28,orange,pink,true,NULL
1717509235,97c6387f0e7bb2e525920ca89da0e708,PennController,43,0,experiment,NULL,Scale,answer,Choice,&emsp;0&emsp;,1717509195557,undefined,undefined,undefined,undefined,undefined,undefined,undefined,undefined,undefined,undefined,28,orange,pink,true,NULL
1717509235,97c6387f0e7bb2e525920ca89da0e708,PennController,43,0,experiment,NULL,Timer,allotted time,End,End,1717509195557,undefined,undefined,undefined,undefined,undefined,undefined,undefined,undefined,undefined,undefined,28,orange,pink,true,NULL
1717509235,97c6387f0e7bb2e525920ca89da0e708,PennController,43,0,experiment,NULL,PennController,43,_Trial_,End,1717509196565,undefined,undefined,undefined,undefined,undefined,undefined,undefined,undefined,undefined,undefined,28,orange,pink,true,NULL
1717509235,97c6387f0e7bb2e525920ca89da0e708,PennController,44,0,experiment,NULL,PennController,44,_Header_,Start,1717509196573,undefined,undefined,undefined,undefined,undefined,undefined,undefined,undefined,undefined,undefined,28,gray,purple,true,NULL
1717509235,97c6387f0e7bb2e525920ca89da0e708,PennController,44,0,experiment,NULL,PennController,44,_Trial_,Start,1717509196573,undefined,undefined,undefined,undefined,undefined,undefined,undefined,undefined,undefined,undefined,28,gray,purple,true,NULL
1717509235,97c6387f0e7bb2e525920ca89da0e708,PennController,44,0,experiment,NULL,PennController,44,_Header_,End,1717509196574,undefined,undefined,undefined,undefined,undefined,undefined,undefined,undefined,undefined,undefined,28,gray,purple,true,NULL
1717509235,97c6387f0e7bb2e525920ca89da0e708,PennController,44,0,experiment,NULL,Timer,allotted time,Start,Start,1717509197077,undefined,undefined,undefined,undefined,undefined,undefined,undefined,undefined,undefined,undefined,28,gray,purple,true,NULL
1717509235,97c6387f0e7bb2e525920ca89da0e708,PennController,44,0,experiment,NULL,Scale,answer,Choice,&emsp;0&emsp;,1717509198125,undefined,undefined,undefined,undefined,undefined,undefined,undefined,undefined,undefined,undefined,28,gray,purple,true,NULL
1717509235,97c6387f0e7bb2e525920ca89da0e708,PennController,44,0,experiment,NULL,Timer,allotted time,End,End,1717509198126,undefined,undefined,undefined,undefined,undefined,undefined,undefined,undefined,undefined,undefined,28,gray,purple,true,NULL
1717509235,97c6387f0e7bb2e525920ca89da0e708,PennController,44,0,experiment,NULL,PennController,44,_Trial_,End,1717509199133,undefined,undefined,undefined,undefined,undefined,undefined,undefined,undefined,undefined,undefined,28,gray,purple,true,NULL
1717509235,97c6387f0e7bb2e525920ca89da0e708,PennController,45,0,experiment,NULL,PennController,45,_Header_,Start,1717509199140,undefined,undefined,undefined,undefined,undefined,undefined,undefined,undefined,undefined,undefined,28,розовый,darkred,true,NULL
1717509235,97c6387f0e7bb2e525920ca89da0e708,PennController,45,0,experiment,NULL,PennController,45,_Trial_,Start,1717509199140,undefined,undefined,undefined,undefined,undefined,undefined,undefined,undefined,undefined,undefined,28,розовый,darkred,true,NULL
1717509235,97c6387f0e7bb2e525920ca89da0e708,PennController,45,0,experiment,NULL,PennController,45,_Header_,End,1717509199141,undefined,undefined,undefined,undefined,undefined,undefined,undefined,undefined,undefined,undefined,28,розовый,darkred,true,NULL
1717509235,97c6387f0e7bb2e525920ca89da0e708,PennController,45,0,experiment,NULL,Timer,allotted time,Start,Start,1717509199644,undefined,undefined,undefined,undefined,undefined,undefined,undefined,undefined,undefined,undefined,28,розовый,darkred,true,NULL
1717509235,97c6387f0e7bb2e525920ca89da0e708,PennController,45,0,experiment,NULL,Scale,answer,Choice,&emsp;0&emsp;,1717509200824,undefined,undefined,undefined,undefined,undefined,undefined,undefined,undefined,undefined,undefined,28,розовый,darkred,true,NULL
1717509235,97c6387f0e7bb2e525920ca89da0e708,PennController,45,0,experiment,NULL,Timer,allotted time,End,End,1717509200825,undefined,undefined,undefined,undefined,undefined,undefined,undefined,undefined,undefined,undefined,28,розовый,darkred,true,NULL
1717509235,97c6387f0e7bb2e525920ca89da0e708,PennController,45,0,experiment,NULL,PennController,45,_Trial_,End,1717509201834,undefined,undefined,undefined,undefined,undefined,undefined,undefined,undefined,undefined,undefined,28,розовый,darkred,true,NULL
1717509235,97c6387f0e7bb2e525920ca89da0e708,PennController,46,0,experiment,NULL,PennController,46,_Header_,Start,1717509201839,undefined,undefined,undefined,undefined,undefined,undefined,undefined,undefined,undefined,undefined,28,black,black,true,NULL
1717509235,97c6387f0e7bb2e525920ca89da0e708,PennController,46,0,experiment,NULL,PennController,46,_Trial_,Start,1717509201839,undefined,undefined,undefined,undefined,undefined,undefined,undefined,undefined,undefined,undefined,28,black,black,true,NULL
1717509235,97c6387f0e7bb2e525920ca89da0e708,PennController,46,0,experiment,NULL,PennController,46,_Header_,End,1717509201841,undefined,undefined,undefined,undefined,undefined,undefined,undefined,undefined,undefined,undefined,28,black,black,true,NULL
1717509235,97c6387f0e7bb2e525920ca89da0e708,PennController,46,0,experiment,NULL,Timer,allotted time,Start,Start,1717509202347,undefined,undefined,undefined,undefined,undefined,undefined,undefined,undefined,undefined,undefined,28,black,black,true,NULL
1717509235,97c6387f0e7bb2e525920ca89da0e708,PennController,46,0,experiment,NULL,Scale,answer,Choice,&emsp;1&emsp;,1717509203329,undefined,undefined,undefined,undefined,undefined,undefined,undefined,undefined,undefined,undefined,28,black,black,true,NULL
1717509235,97c6387f0e7bb2e525920ca89da0e708,PennController,46,0,experiment,NULL,Timer,allotted time,End,End,1717509203330,undefined,undefined,undefined,undefined,undefined,undefined,undefined,undefined,undefined,undefined,28,black,black,true,NULL
1717509235,97c6387f0e7bb2e525920ca89da0e708,PennController,46,0,experiment,NULL,PennController,46,_Trial_,End,1717509204336,undefined,undefined,undefined,undefined,undefined,undefined,undefined,undefined,undefined,undefined,28,black,black,true,NULL
1717509235,97c6387f0e7bb2e525920ca89da0e708,PennController,47,0,experiment,NULL,PennController,47,_Header_,Start,1717509204342,undefined,undefined,undefined,undefined,undefined,undefined,undefined,undefined,undefined,undefined,28,red,red,true,NULL
1717509235,97c6387f0e7bb2e525920ca89da0e708,PennController,47,0,experiment,NULL,PennController,47,_Trial_,Start,1717509204342,undefined,undefined,undefined,undefined,undefined,undefined,undefined,undefined,undefined,undefined,28,red,red,true,NULL
1717509235,97c6387f0e7bb2e525920ca89da0e708,PennController,47,0,experiment,NULL,PennController,47,_Header_,End,1717509204343,undefined,undefined,undefined,undefined,undefined,undefined,undefined,undefined,undefined,undefined,28,red,red,true,NULL
1717509235,97c6387f0e7bb2e525920ca89da0e708,PennController,47,0,experiment,NULL,Timer,allotted time,Start,Start,1717509204848,undefined,undefined,undefined,undefined,undefined,undefined,undefined,undefined,undefined,undefined,28,red,red,true,NULL
1717509235,97c6387f0e7bb2e525920ca89da0e708,PennController,47,0,experiment,NULL,Scale,answer,Choice,&emsp;1&emsp;,1717509205830,undefined,undefined,undefined,undefined,undefined,undefined,undefined,undefined,undefined,undefined,28,red,red,true,NULL
1717509235,97c6387f0e7bb2e525920ca89da0e708,PennController,47,0,experiment,NULL,Timer,allotted time,End,End,1717509205830,undefined,undefined,undefined,undefined,undefined,undefined,undefined,undefined,undefined,undefined,28,red,red,true,NULL
1717509235,97c6387f0e7bb2e525920ca89da0e708,PennController,47,0,experiment,NULL,PennController,47,_Trial_,End,1717509206838,undefined,undefined,undefined,undefined,undefined,undefined,undefined,undefined,undefined,undefined,28,red,red,true,NULL
1717509235,97c6387f0e7bb2e525920ca89da0e708,PennController,48,0,experiment,NULL,PennController,48,_Header_,Start,1717509206845,undefined,undefined,undefined,undefined,undefined,undefined,undefined,undefined,undefined,undefined,28,yellow,yellow,true,NULL
1717509235,97c6387f0e7bb2e525920ca89da0e708,PennController,48,0,experiment,NULL,PennController,48,_Trial_,Start,1717509206845,undefined,undefined,undefined,undefined,undefined,undefined,undefined,undefined,undefined,undefined,28,yellow,yellow,true,NULL
1717509235,97c6387f0e7bb2e525920ca89da0e708,PennController,48,0,experiment,NULL,PennController,48,_Header_,End,1717509206846,undefined,undefined,undefined,undefined,undefined,undefined,undefined,undefined,undefined,undefined,28,yellow,yellow,true,NULL
1717509235,97c6387f0e7bb2e525920ca89da0e708,PennController,48,0,experiment,NULL,Timer,allotted time,Start,Start,1717509207349,undefined,undefined,undefined,undefined,undefined,undefined,undefined,undefined,undefined,undefined,28,yellow,yellow,true,NULL
1717509235,97c6387f0e7bb2e525920ca89da0e708,PennController,48,0,experiment,NULL,Scale,answer,Choice,&emsp;1&emsp;,1717509208135,undefined,undefined,undefined,undefined,undefined,undefined,undefined,undefined,undefined,undefined,28,yellow,yellow,true,NULL
1717509235,97c6387f0e7bb2e525920ca89da0e708,PennController,48,0,experiment,NULL,Timer,allotted time,End,End,1717509208136,undefined,undefined,undefined,undefined,undefined,undefined,undefined,undefined,undefined,undefined,28,yellow,yellow,true,NULL
1717509235,97c6387f0e7bb2e525920ca89da0e708,PennController,48,0,experiment,NULL,PennController,48,_Trial_,End,1717509209145,undefined,undefined,undefined,undefined,undefined,undefined,undefined,undefined,undefined,undefined,28,yellow,yellow,true,NULL
1717509235,97c6387f0e7bb2e525920ca89da0e708,PennController,49,0,experiment,NULL,PennController,49,_Header_,Start,1717509209151,undefined,undefined,undefined,undefined,undefined,undefined,undefined,undefined,undefined,undefined,28,оранжевый,pink,true,NULL
1717509235,97c6387f0e7bb2e525920ca89da0e708,PennController,49,0,experiment,NULL,PennController,49,_Trial_,Start,1717509209151,undefined,undefined,undefined,undefined,undefined,undefined,undefined,undefined,undefined,undefined,28,оранжевый,pink,true,NULL
1717509235,97c6387f0e7bb2e525920ca89da0e708,PennController,49,0,experiment,NULL,PennController,49,_Header_,End,1717509209153,undefined,undefined,undefined,undefined,undefined,undefined,undefined,undefined,undefined,undefined,28,оранжевый,pink,true,NULL
1717509235,97c6387f0e7bb2e525920ca89da0e708,PennController,49,0,experiment,NULL,Timer,allotted time,Start,Start,1717509209659,undefined,undefined,undefined,undefined,undefined,undefined,undefined,undefined,undefined,undefined,28,оранжевый,pink,true,NULL
1717509235,97c6387f0e7bb2e525920ca89da0e708,PennController,49,0,experiment,NULL,Scale,answer,Choice,&emsp;0&emsp;,1717509210540,undefined,undefined,undefined,undefined,undefined,undefined,undefined,undefined,undefined,undefined,28,оранжевый,pink,true,NULL
1717509235,97c6387f0e7bb2e525920ca89da0e708,PennController,49,0,experiment,NULL,Timer,allotted time,End,End,1717509210540,undefined,undefined,undefined,undefined,undefined,undefined,undefined,undefined,undefined,undefined,28,оранжевый,pink,true,NULL
1717509235,97c6387f0e7bb2e525920ca89da0e708,PennController,49,0,experiment,NULL,PennController,49,_Trial_,End,1717509211548,undefined,undefined,undefined,undefined,undefined,undefined,undefined,undefined,undefined,undefined,28,оранжевый,pink,true,NULL
1717509235,97c6387f0e7bb2e525920ca89da0e708,PennController,50,0,experiment,NULL,PennController,50,_Trial_,Start,1717509211554,undefined,undefined,undefined,undefined,undefined,undefined,undefined,undefined,undefined,undefined,28,чёрный,black,true,NULL
1717509235,97c6387f0e7bb2e525920ca89da0e708,PennController,50,0,experiment,NULL,PennController,50,_Header_,Start,1717509211555,undefined,undefined,undefined,undefined,undefined,undefined,undefined,undefined,undefined,undefined,28,чёрный,black,true,NULL
1717509235,97c6387f0e7bb2e525920ca89da0e708,PennController,50,0,experiment,NULL,PennController,50,_Header_,End,1717509211556,undefined,undefined,undefined,undefined,undefined,undefined,undefined,undefined,undefined,undefined,28,чёрный,black,true,NULL
1717509235,97c6387f0e7bb2e525920ca89da0e708,PennController,50,0,experiment,NULL,Timer,allotted time,Start,Start,1717509212061,undefined,undefined,undefined,undefined,undefined,undefined,undefined,undefined,undefined,undefined,28,чёрный,black,true,NULL
1717509235,97c6387f0e7bb2e525920ca89da0e708,PennController,50,0,experiment,NULL,Scale,answer,Choice,&emsp;1&emsp;,1717509212882,undefined,undefined,undefined,undefined,undefined,undefined,undefined,undefined,undefined,undefined,28,чёрный,black,true,NULL
1717509235,97c6387f0e7bb2e525920ca89da0e708,PennController,50,0,experiment,NULL,Timer,allotted time,End,End,1717509212883,undefined,undefined,undefined,undefined,undefined,undefined,undefined,undefined,undefined,undefined,28,чёрный,black,true,NULL
1717509235,97c6387f0e7bb2e525920ca89da0e708,PennController,50,0,experiment,NULL,PennController,50,_Trial_,End,1717509213889,undefined,undefined,undefined,undefined,undefined,undefined,undefined,undefined,undefined,undefined,28,чёрный,black,true,NULL
1717509235,97c6387f0e7bb2e525920ca89da0e708,PennController,51,0,experiment,NULL,PennController,51,_Header_,Start,1717509213896,undefined,undefined,undefined,undefined,undefined,undefined,undefined,undefined,undefined,undefined,28,yellow,yellow,true,NULL
1717509235,97c6387f0e7bb2e525920ca89da0e708,PennController,51,0,experiment,NULL,PennController,51,_Trial_,Start,1717509213896,undefined,undefined,undefined,undefined,undefined,undefined,undefined,undefined,undefined,undefined,28,yellow,yellow,true,NULL
1717509235,97c6387f0e7bb2e525920ca89da0e708,PennController,51,0,experiment,NULL,PennController,51,_Header_,End,1717509213897,undefined,undefined,undefined,undefined,undefined,undefined,undefined,undefined,undefined,undefined,28,yellow,yellow,true,NULL
1717509235,97c6387f0e7bb2e525920ca89da0e708,PennController,51,0,experiment,NULL,Timer,allotted time,Start,Start,1717509214404,undefined,undefined,undefined,undefined,undefined,undefined,undefined,undefined,undefined,undefined,28,yellow,yellow,true,NULL
1717509235,97c6387f0e7bb2e525920ca89da0e708,PennController,51,0,experiment,NULL,Scale,answer,Choice,&emsp;1&emsp;,1717509215434,undefined,undefined,undefined,undefined,undefined,undefined,undefined,undefined,undefined,undefined,28,yellow,yellow,true,NULL
1717509235,97c6387f0e7bb2e525920ca89da0e708,PennController,51,0,experiment,NULL,Timer,allotted time,End,End,1717509215434,undefined,undefined,undefined,undefined,undefined,undefined,undefined,undefined,undefined,undefined,28,yellow,yellow,true,NULL
1717509235,97c6387f0e7bb2e525920ca89da0e708,PennController,51,0,experiment,NULL,PennController,51,_Trial_,End,1717509216440,undefined,undefined,undefined,undefined,undefined,undefined,undefined,undefined,undefined,undefined,28,yellow,yellow,true,NULL
1717509235,97c6387f0e7bb2e525920ca89da0e708,PennController,52,0,experiment,NULL,PennController,52,_Header_,Start,1717509216446,undefined,undefined,undefined,undefined,undefined,undefined,undefined,undefined,undefined,undefined,28,зелёный,green,true,NULL
1717509235,97c6387f0e7bb2e525920ca89da0e708,PennController,52,0,experiment,NULL,PennController,52,_Trial_,Start,1717509216446,undefined,undefined,undefined,undefined,undefined,undefined,undefined,undefined,undefined,undefined,28,зелёный,green,true,NULL
1717509235,97c6387f0e7bb2e525920ca89da0e708,PennController,52,0,experiment,NULL,PennController,52,_Header_,End,1717509216447,undefined,undefined,undefined,undefined,undefined,undefined,undefined,undefined,undefined,undefined,28,зелёный,green,true,NULL
1717509235,97c6387f0e7bb2e525920ca89da0e708,PennController,52,0,experiment,NULL,Timer,allotted time,Start,Start,1717509216953,undefined,undefined,undefined,undefined,undefined,undefined,undefined,undefined,undefined,undefined,28,зелёный,green,true,NULL
1717509235,97c6387f0e7bb2e525920ca89da0e708,PennController,52,0,experiment,NULL,Scale,answer,Choice,&emsp;1&emsp;,1717509218148,undefined,undefined,undefined,undefined,undefined,undefined,undefined,undefined,undefined,undefined,28,зелёный,green,true,NULL
1717509235,97c6387f0e7bb2e525920ca89da0e708,PennController,52,0,experiment,NULL,Timer,allotted time,End,End,1717509218149,undefined,undefined,undefined,undefined,undefined,undefined,undefined,undefined,undefined,undefined,28,зелёный,green,true,NULL
1717509235,97c6387f0e7bb2e525920ca89da0e708,PennController,52,0,experiment,NULL,PennController,52,_Trial_,End,1717509219157,undefined,undefined,undefined,undefined,undefined,undefined,undefined,undefined,undefined,undefined,28,зелёный,green,true,NULL
1717509235,97c6387f0e7bb2e525920ca89da0e708,PennController,53,0,experiment,NULL,PennController,53,_Header_,Start,1717509219162,undefined,undefined,undefined,undefined,undefined,undefined,undefined,undefined,undefined,undefined,28,brown,black,true,NULL
1717509235,97c6387f0e7bb2e525920ca89da0e708,PennController,53,0,experiment,NULL,PennController,53,_Trial_,Start,1717509219162,undefined,undefined,undefined,undefined,undefined,undefined,undefined,undefined,undefined,undefined,28,brown,black,true,NULL
1717509235,97c6387f0e7bb2e525920ca89da0e708,PennController,53,0,experiment,NULL,PennController,53,_Header_,End,1717509219164,undefined,undefined,undefined,undefined,undefined,undefined,undefined,undefined,undefined,undefined,28,brown,black,true,NULL
1717509235,97c6387f0e7bb2e525920ca89da0e708,PennController,53,0,experiment,NULL,Timer,allotted time,Start,Start,1717509219669,undefined,undefined,undefined,undefined,undefined,undefined,undefined,undefined,undefined,undefined,28,brown,black,true,NULL
1717509235,97c6387f0e7bb2e525920ca89da0e708,PennController,53,0,experiment,NULL,Scale,answer,Choice,&emsp;0&emsp;,1717509220635,undefined,undefined,undefined,undefined,undefined,undefined,undefined,undefined,undefined,undefined,28,brown,black,true,NULL
1717509235,97c6387f0e7bb2e525920ca89da0e708,PennController,53,0,experiment,NULL,Timer,allotted time,End,End,1717509220635,undefined,undefined,undefined,undefined,undefined,undefined,undefined,undefined,undefined,undefined,28,brown,black,true,NULL
1717509235,97c6387f0e7bb2e525920ca89da0e708,PennController,53,0,experiment,NULL,PennController,53,_Trial_,End,1717509221642,undefined,undefined,undefined,undefined,undefined,undefined,undefined,undefined,undefined,undefined,28,brown,black,true,NULL
1717509235,97c6387f0e7bb2e525920ca89da0e708,PennController,54,0,experiment,NULL,PennController,54,_Header_,Start,1717509221648,undefined,undefined,undefined,undefined,undefined,undefined,undefined,undefined,undefined,undefined,28,pink,darkred,true,NULL
1717509235,97c6387f0e7bb2e525920ca89da0e708,PennController,54,0,experiment,NULL,PennController,54,_Trial_,Start,1717509221648,undefined,undefined,undefined,undefined,undefined,undefined,undefined,undefined,undefined,undefined,28,pink,darkred,true,NULL
1717509235,97c6387f0e7bb2e525920ca89da0e708,PennController,54,0,experiment,NULL,PennController,54,_Header_,End,1717509221650,undefined,undefined,undefined,undefined,undefined,undefined,undefined,undefined,undefined,undefined,28,pink,darkred,true,NULL
1717509235,97c6387f0e7bb2e525920ca89da0e708,PennController,54,0,experiment,NULL,Timer,allotted time,Start,Start,1717509222153,undefined,undefined,undefined,undefined,undefined,undefined,undefined,undefined,undefined,undefined,28,pink,darkred,true,NULL
1717509235,97c6387f0e7bb2e525920ca89da0e708,PennController,54,0,experiment,NULL,Scale,answer,Choice,&emsp;0&emsp;,1717509223279,undefined,undefined,undefined,undefined,undefined,undefined,undefined,undefined,undefined,undefined,28,pink,darkred,true,NULL
1717509235,97c6387f0e7bb2e525920ca89da0e708,PennController,54,0,experiment,NULL,Timer,allotted time,End,End,1717509223280,undefined,undefined,undefined,undefined,undefined,undefined,undefined,undefined,undefined,undefined,28,pink,darkred,true,NULL
1717509235,97c6387f0e7bb2e525920ca89da0e708,PennController,54,0,experiment,NULL,PennController,54,_Trial_,End,1717509224286,undefined,undefined,undefined,undefined,undefined,undefined,undefined,undefined,undefined,undefined,28,pink,darkred,true,NULL
1717509235,97c6387f0e7bb2e525920ca89da0e708,PennController,55,0,experiment,NULL,PennController,55,_Header_,Start,1717509224290,undefined,undefined,undefined,undefined,undefined,undefined,undefined,undefined,undefined,undefined,28,коричневый,green,true,NULL
1717509235,97c6387f0e7bb2e525920ca89da0e708,PennController,55,0,experiment,NULL,PennController,55,_Trial_,Start,1717509224290,undefined,undefined,undefined,undefined,undefined,undefined,undefined,undefined,undefined,undefined,28,коричневый,green,true,NULL
1717509235,97c6387f0e7bb2e525920ca89da0e708,PennController,55,0,experiment,NULL,PennController,55,_Header_,End,1717509224291,undefined,undefined,undefined,undefined,undefined,undefined,undefined,undefined,undefined,undefined,28,коричневый,green,true,NULL
1717509235,97c6387f0e7bb2e525920ca89da0e708,PennController,55,0,experiment,NULL,Timer,allotted time,Start,Start,1717509224797,undefined,undefined,undefined,undefined,undefined,undefined,undefined,undefined,undefined,undefined,28,коричневый,green,true,NULL
1717509235,97c6387f0e7bb2e525920ca89da0e708,PennController,55,0,experiment,NULL,Scale,answer,Choice,&emsp;0&emsp;,1717509228377,undefined,undefined,undefined,undefined,undefined,undefined,undefined,undefined,undefined,undefined,28,коричневый,green,true,NULL
1717509235,97c6387f0e7bb2e525920ca89da0e708,PennController,55,0,experiment,NULL,Timer,allotted time,End,End,1717509228378,undefined,undefined,undefined,undefined,undefined,undefined,undefined,undefined,undefined,undefined,28,коричневый,green,true,NULL
1717509235,97c6387f0e7bb2e525920ca89da0e708,PennController,55,0,experiment,NULL,PennController,55,_Trial_,End,1717509229386,undefined,undefined,undefined,undefined,undefined,undefined,undefined,undefined,undefined,undefined,28,коричневый,green,true,NULL
1717509235,97c6387f0e7bb2e525920ca89da0e708,PennController,56,0,experiment,NULL,PennController,56,_Header_,Start,1717509229391,undefined,undefined,undefined,undefined,undefined,undefined,undefined,undefined,undefined,undefined,28,зелёный,navy,true,NULL
1717509235,97c6387f0e7bb2e525920ca89da0e708,PennController,56,0,experiment,NULL,PennController,56,_Trial_,Start,1717509229391,undefined,undefined,undefined,undefined,undefined,undefined,undefined,undefined,undefined,undefined,28,зелёный,navy,true,NULL
1717509235,97c6387f0e7bb2e525920ca89da0e708,PennController,56,0,experiment,NULL,PennController,56,_Header_,End,1717509229393,undefined,undefined,undefined,undefined,undefined,undefined,undefined,undefined,undefined,undefined,28,зелёный,navy,true,NULL
1717509235,97c6387f0e7bb2e525920ca89da0e708,PennController,56,0,experiment,NULL,Timer,allotted time,Start,Start,1717509229899,undefined,undefined,undefined,undefined,undefined,undefined,undefined,undefined,undefined,undefined,28,зелёный,navy,true,NULL
1717509235,97c6387f0e7bb2e525920ca89da0e708,PennController,56,0,experiment,NULL,Scale,answer,Choice,&emsp;0&emsp;,1717509232523,undefined,undefined,undefined,undefined,undefined,undefined,undefined,undefined,undefined,undefined,28,зелёный,navy,true,NULL
1717509235,97c6387f0e7bb2e525920ca89da0e708,PennController,56,0,experiment,NULL,Timer,allotted time,End,End,1717509232524,undefined,undefined,undefined,undefined,undefined,undefined,undefined,undefined,undefined,undefined,28,зелёный,navy,true,NULL
1717509235,97c6387f0e7bb2e525920ca89da0e708,PennController,56,0,experiment,NULL,PennController,56,_Trial_,End,1717509233529,undefined,undefined,undefined,undefined,undefined,undefined,undefined,undefined,undefined,undefined,28,зелёный,navy,true,NULL
#
# Results on Tue, 04 Jun 2024 14:13:37 GMT
# USER AGENT: Mozilla/5.0 (Windows NT 10.0; Win64; x64) AppleWebKit/537.36 (KHTML, like Gecko) Chrome/125.0.0.0 Safari/537.36
# Design number was non-random = 1
#
# Columns below this comment are as follows:
# 1. Results reception time.
# 2. MD5 hash of participant's IP address.
# 3. Controller name.
# 4. Order number of item.
# 5. Inner element number.
# 6. Label.
# 7. Latin Square Group.
# 8. PennElementType.
# 9. PennElementName.
# 10. Parameter.
# 11. Value.
# 12. EventTime.
# 13. freq_for_2.
# 14. freq_for_1.
# 15. freq_russ_2.
# 16. freq_russ_1.
# 17. lang2.
# 18. lang1.
# 19. edu.
# 20. country1.
# 21. age.
# 22. state.
# 23. id.
# 24. Comments.
1717510417,20c94c01b7d2b6aa75c1afdac30a9d08,PennController,1,0,permission,NULL,PennController,0,_Trial_,Start,1717509811969,undefined,undefined,undefined,undefined,undefined,undefined,undefined,undefined,undefined,undefined,undefined,NULL
1717510417,20c94c01b7d2b6aa75c1afdac30a9d08,PennController,1,0,permission,NULL,PennController,0,_Header_,Start,1717509811970,undefined,undefined,undefined,undefined,undefined,undefined,undefined,undefined,undefined,undefined,undefined,NULL
1717510417,20c94c01b7d2b6aa75c1afdac30a9d08,PennController,1,0,permission,NULL,PennController,0,_Header_,End,1717509811970,undefined,undefined,undefined,undefined,undefined,undefined,undefined,undefined,undefined,undefined,undefined,NULL
1717510417,20c94c01b7d2b6aa75c1afdac30a9d08,PennController,1,0,permission,NULL,PennController,0,_Trial_,End,1717509827550,undefined,undefined,undefined,undefined,undefined,undefined,undefined,undefined,undefined,undefined,undefined,NULL
1717510417,20c94c01b7d2b6aa75c1afdac30a9d08,PennController,2,0,survey,NULL,PennController,1,_Trial_,Start,1717509827553,undefined,undefined,undefined,undefined,undefined,undefined,undefined,undefined,undefined,undefined,undefined,NULL
1717510417,20c94c01b7d2b6aa75c1afdac30a9d08,PennController,2,0,survey,NULL,PennController,1,_Header_,Start,1717509827553,undefined,undefined,undefined,undefined,undefined,undefined,undefined,undefined,undefined,undefined,undefined,NULL
1717510417,20c94c01b7d2b6aa75c1afdac30a9d08,PennController,2,0,survey,NULL,PennController,1,_Header_,End,1717509827553,undefined,undefined,undefined,undefined,undefined,undefined,undefined,undefined,undefined,undefined,undefined,NULL
1717510417,20c94c01b7d2b6aa75c1afdac30a9d08,PennController,2,0,survey,NULL,Html,survey_form,age,20,1717510014276,undefined,undefined,undefined,undefined,undefined,undefined,undefined,undefined,undefined,undefined,undefined,text input
1717510417,20c94c01b7d2b6aa75c1afdac30a9d08,PennController,2,0,survey,NULL,Html,survey_form,years_of_education,13,1717510014276,undefined,undefined,undefined,undefined,undefined,undefined,undefined,undefined,undefined,undefined,undefined,text input
1717510417,20c94c01b7d2b6aa75c1afdac30a9d08,PennController,2,0,survey,NULL,Html,survey_form,englishlevel_hse,-,1717510014276,undefined,undefined,undefined,undefined,undefined,undefined,undefined,undefined,undefined,undefined,undefined,text input
1717510417,20c94c01b7d2b6aa75c1afdac30a9d08,PennController,2,0,survey,NULL,Html,survey_form,englishlevel_ielts,-,1717510014276,undefined,undefined,undefined,undefined,undefined,undefined,undefined,undefined,undefined,undefined,undefined,text input
1717510417,20c94c01b7d2b6aa75c1afdac30a9d08,PennController,2,0,survey,NULL,Html,survey_form,englishlevel_toefl,B2,1717510014276,undefined,undefined,undefined,undefined,undefined,undefined,undefined,undefined,undefined,undefined,undefined,text input
1717510417,20c94c01b7d2b6aa75c1afdac30a9d08,PennController,2,0,survey,NULL,Html,survey_form,domin1,русский,1717510014276,undefined,undefined,undefined,undefined,undefined,undefined,undefined,undefined,undefined,undefined,undefined,text input
